PartID,Subject,cond,trialNum,reversals,streakLength,lowFreq,highFreq,freqDiff,correct,RT,Time
5039,1,a,1,0,0,1000,500,500,1,2.696165089,99.37191001
5039,1,a,2,0,1,1000,500,500,1,2.637861435,102.0098684
5039,1,a,3,0,0,1000,1250,250,1,2.499955907,104.5099098
5039,1,a,4,0,1,1000,1250,250,1,2.58692998,107.0969424
5039,1,a,5,0,0,1000,875,125,1,2.981842993,110.0788724
5039,1,a,6,0,1,1000,875,125,1,2.655029401,112.7339942
5039,1,a,7,0,0,1000,1062.5,62.5,0,3.137880061,115.8719674
5039,1,a,8,1,0,1000,897.5,102.5,0,2.499863161,118.371926
5039,1,a,9,2,0,1000,857.5,142.5,1,2.017153902,120.3891745
5039,1,a,10,2,1,1000,1142.5,142.5,0,2.379218726,122.7684883
5039,1,a,11,3,0,1000,817.5,182.5,1,2.982651863,125.7512352
5039,1,a,12,3,1,1000,817.5,182.5,1,2.68956261,128.4408901
5039,1,a,13,3,0,1000,908.75,91.25,1,3.103364718,131.5443446
5039,1,a,14,3,1,1000,1091.25,91.25,0,2.758530198,134.3029664
5039,1,a,15,4,0,1000,868.75,131.25,1,3.155119487,137.4581824
5039,1,a,16,4,1,1000,868.75,131.25,1,3.310313095,140.7685924
5039,1,a,17,4,0,1000,934.375,65.625,1,2.690172303,143.4588575
5039,1,a,18,4,1,1000,1065.625,65.625,1,2.361264696,145.8202218
5039,1,a,19,4,0,1000,1032.8125,32.8125,1,2.896460813,148.7167784
5039,1,a,20,4,1,1000,967.1875,32.8125,1,2.999961229,151.7168278
5039,1,a,21,4,0,1000,983.59375,16.40625,0,2.620548648,154.3374711
5039,1,a,22,5,0,1000,1041.40625,41.40625,0,2.27575518,156.6133182
5039,1,a,23,6,0,1000,1066.40625,66.40625,0,2.18956261,158.8029793
5039,1,a,24,7,0,1000,1091.40625,91.40625,1,2.172363855,160.9754427
5039,1,a,25,7,1,1000,908.59375,91.40625,1,2.896428123,163.8719704
5039,1,a,26,7,0,1000,1045.703125,45.703125,1,2.724024357,166.5960913
5039,1,a,27,7,1,1000,1045.703125,45.703125,1,2.551620971,169.1478226
5039,1,a,28,7,0,1000,1022.851563,22.8515625,1,2.448176811,171.5960948
5039,1,a,29,7,1,1000,977.1484375,22.8515625,0,4.551631994,176.1478245
5039,1,a,30,8,0,1000,952.1484375,47.8515625,0,2.482702037,178.6306249
5039,1,a,31,9,0,1000,947.1484375,52.8515625,1,3.206751862,181.8374752
5039,1,a,32,9,1,1000,1052.851563,52.8515625,1,2.241283549,184.0788557
5039,1,a,33,9,0,1000,973.5742188,26.42578125,0,2.29304364,186.3719948
5039,1,a,34,10,0,1000,1031.425781,31.42578125,0,2.120562332,188.4926559
5039,1,a,35,11,0,1000,1036.425781,36.42578125,1,3.396579026,191.8893319
5039,1,a,36,11,1,1000,963.5742188,36.42578125,0,2.94806696,194.8375076
5039,1,a,37,12,0,1000,1041.425781,41.42578125,0,2.34469426,197.1823018
5039,1,a,38,13,0,1000,953.5742188,46.42578125,1,3.810251137,200.9926514
5039,1,a,39,13,1,1000,1046.425781,46.42578125,1,3.551633135,204.5443814
5039,1,a,40,13,0,1000,976.7871094,23.21289063,,0,209.1305725
5039,1,a,41,13,0,1000,976.7871094,23.21289063,1,2.32751299,211.4581995
5039,1,a,42,13,1,1000,976.7871094,23.21289063,0,2.6895303,214.1478264
5039,1,a,43,14,0,1000,971.7871094,28.21289063,1,2.655071213,216.8030002
5039,1,a,44,14,1,1000,971.7871094,28.21289063,0,2.120603004,218.9236997
5039,1,a,45,15,0,1000,1033.212891,33.21289063,0,2.189551206,221.1133502
5039,1,a,46,16,0,1000,1038.212891,38.21289063,1,2.36243847,223.4758783
5039,1,a,47,16,1,1000,1038.212891,38.21289063,1,3.24082856,226.7168076
5039,1,a,48,16,0,1000,980.8935547,19.10644531,1,2.499976053,229.2168867
5039,1,a,49,16,1,1000,1019.106445,19.10644531,0,3.051533166,232.2685191
5039,1,r,1,0,0,1046,1546,500,1,2.785599982,256.3030158
5039,1,r,2,0,1,1236,1736,500,1,2.413725326,258.7168301
5039,1,r,3,0,0,1485,1235,250,1,2.758490286,261.4754138
5039,1,r,4,0,1,1292,1542,250,1,2.586179647,264.0616908
5039,1,r,5,0,0,1242,1117,125,1,2.568787797,266.6305729
5039,1,r,6,0,1,1260,1385,125,1,2.741312818,269.371983
5039,1,r,7,0,0,1240,1302.5,62.5,0,2.948227366,272.3203118
5039,1,r,8,1,0,1179.5,1077,102.5,1,3.258464439,275.5788732
5039,1,r,9,1,1,1036,1138.5,102.5,1,3.879230509,279.4582003
5039,1,r,10,1,0,1069.25,1018,51.25,1,2.32793453,281.7863648
5039,1,r,11,1,1,1264,1315.25,51.25,1,2.482073338,284.268532
5039,1,r,12,1,0,1333,1358.625,25.625,1,2.534385726,286.8030131
5039,1,r,13,1,1,1213.625,1188,25.625,1,2.741277087,289.5443818
5039,1,r,14,1,0,1210,1222.8125,12.8125,1,3.482708879,293.027196
5039,1,r,15,1,1,1353.8125,1341,12.8125,1,2.430940046,295.4582379
5039,1,r,16,1,0,1295.40625,1289,6.40625,0,2.137864096,297.5962054
5039,1,r,17,2,0,1368.40625,1322,46.40625,1,2.861894155,300.4581968
5039,1,r,18,2,1,1226.40625,1180,46.40625,1,2.603328227,303.0616209
5039,1,r,19,2,0,1363.203125,1340,23.203125,0,2.603377641,305.6651007
5039,1,r,20,3,0,1038,1101.203125,63.203125,0,3.189552347,308.8547523
5039,1,r,21,4,0,1142.203125,1039,103.203125,1,3.930979577,312.7858364
5039,1,r,22,4,1,1393.203125,1290,103.203125,0,2.568809843,315.3547379
5039,1,r,23,5,0,1238,1366.203125,128.203125,,0,319.9408977
5039,1,r,24,5,0,1525.203125,1397,128.203125,1,3.137907048,323.078904
5039,1,r,25,5,1,1310.203125,1182,128.203125,0,2.758551484,325.8375798
5039,1,r,26,6,0,1018,1171.203125,153.203125,1,2.17224298,328.0099269
5039,1,r,27,6,1,1288.203125,1135,153.203125,1,2.24128507,330.2513062
5039,1,r,28,6,0,1266.601563,1190,76.6015625,0,2.206685343,332.4580741
5039,1,r,29,7,0,1113,1214.601563,101.6015625,,0,337.0443959
5039,1,r,30,7,0,1481.601563,1380,101.6015625,1,4.03439941,341.0788941
5039,1,r,31,7,1,1295.601563,1194,101.6015625,0,2.68960024,343.7685936
5039,1,r,32,8,0,1368,1494.601563,126.6015625,0,2.758527157,346.527223
5039,1,r,33,9,0,1259.601563,1128,131.6015625,1,4.189517757,350.7168384
5039,1,r,34,9,1,1141,1272.601563,131.6015625,1,2.67231026,353.389246
5039,1,r,35,9,0,1443.800781,1378,65.80078125,1,2.879259397,356.2685928
5039,1,r,36,9,1,1342,1407.800781,65.80078125,1,2.879224807,359.1479195
5039,1,r,37,9,0,1124,1156.900391,32.90039063,1,2.586342333,361.7343561
5039,1,r,38,9,1,1218.900391,1186,32.90039063,1,2.465139519,364.1995944
5039,1,r,39,9,0,1311,1327.450195,16.45019531,1,2.258533619,366.4582257
5039,1,r,40,9,1,1246.450195,1230,16.45019531,1,2.172278711,368.6306097
5039,1,r,41,9,0,1285.225098,1277,8.225097656,0,2.241389599,370.8721023
5039,1,r,42,10,0,1089.225098,1076,13.22509766,1,2.637732579,373.5099311
5039,1,r,43,10,1,1226.225098,1213,13.22509766,0,2.379185276,375.8892133
5039,1,r,44,11,0,1143.225098,1125,18.22509766,1,2.896493122,378.7858109
5039,1,r,45,11,1,1293.225098,1275,18.22509766,0,2.55165176,381.3375646
5039,1,r,46,12,0,1186.225098,1163,23.22509766,1,3.982620694,385.3202807
5039,1,r,47,12,1,1357,1380.225098,23.22509766,1,2.586114648,387.906493
5039,1,r,48,12,0,1260.612549,1249,11.61254883,1,3.138557413,391.04515
5039,1,r,49,12,1,1006,1017.612549,11.61254883,0,3.706120502,394.7513731
5039,1,r,50,13,0,1110.612549,1094,16.61254883,0,3.103434658,397.8549116
5039,1,r,51,14,0,1336,1357.612549,21.61254883,1,3.517097646,401.3721134
5039,1,r,52,14,1,1083,1104.612549,21.61254883,0,2.896403797,404.2686205
5039,1,r,53,15,0,1407.612549,1381,26.61254883,0,2.41373749,406.6824744
5039,1,r,54,16,0,1053,1084.612549,31.61254883,1,3.258456077,409.9410239
5039,1,r,55,16,1,1119.612549,1088,31.61254883,1,3.499852138,413.4409654
5039,1,r,56,16,0,1276,1291.806274,15.80627441,1,2.879228989,416.320286
5039,1,r,57,16,1,1021,1036.806274,15.80627441,0,2.603362437,418.92374
READ_4521,1,a,1,0,0,1000,500,500,1,2.998942143,144.4697256
READ_4521,1,a,2,0,1,1000,500,500,1,2.879163339,147.3489814
READ_4521,1,a,3,0,0,1000,1250,250,0,2.448241613,149.7973507
READ_4521,1,a,4,1,0,1000,710,290,1,2.3100653,152.1075308
READ_4521,1,a,5,1,1,1000,1290,290,0,2.431017895,154.5386483
READ_4521,1,a,6,2,0,1000,670,330,0,2.499972822,157.0387313
READ_4521,1,a,7,3,0,1000,630,370,1,2.24119932,159.2800211
READ_4521,1,a,8,3,1,1000,1370,370,0,3.068846594,162.3489669
READ_4521,1,a,9,4,0,1000,1410,410,1,2.29299933,164.6420563
READ_4521,1,a,10,4,1,1000,590,410,1,2.603405212,167.245563
READ_4521,1,a,11,4,0,1000,795,205,0,2.017050385,169.2627214
READ_4521,1,a,12,5,0,1000,770,230,1,1.689455757,170.9522718
READ_4521,1,a,13,5,1,1000,770,230,0,2.086263029,173.0386188
READ_4521,1,a,14,6,0,1000,1255,255,0,2.672262449,175.7109725
READ_4521,1,a,15,7,0,1000,720,280,1,2.172313574,177.8833788
READ_4521,1,a,16,7,1,1000,720,280,0,2.051703461,179.9351723
READ_4521,1,a,17,8,0,1000,1305,305,0,2.206847674,182.142123
READ_4521,1,a,18,9,0,1000,1310,310,1,2.448127958,184.5903346
READ_4521,1,a,19,9,1,1000,690,310,1,2.551609763,187.1420367
READ_4521,1,a,20,9,0,1000,1155,155,1,4.172394918,191.3145366
READ_4521,1,a,21,9,1,1000,845,155,0,3.517043353,194.8316674
READ_4521,1,a,22,10,0,1000,1160,160,0,2.517150925,197.3489061
READ_4521,1,a,23,11,0,1000,1165,165,1,2.01723398,199.3662587
READ_4521,1,a,24,11,1,1000,1165,165,1,2.120556517,201.486906
READ_4521,1,a,25,11,0,1000,917.5,82.5,0,1.982664149,203.4696694
READ_4521,1,a,26,12,0,1000,912.5,87.5,1,2.086042563,205.5558013
READ_4521,1,a,27,12,1,1000,1087.5,87.5,1,2.018131429,207.5740171
READ_4521,1,a,28,12,0,1000,1043.75,43.75,0,2.119700121,209.6938008
READ_4521,1,a,29,13,0,1000,1048.75,48.75,1,1.861973832,211.555861
READ_4521,1,a,30,13,1,1000,1048.75,48.75,0,3.844823097,215.4007867
READ_4521,1,a,31,14,0,1000,1053.75,53.75,0,2.465375623,217.8662524
READ_4521,1,a,32,15,0,1000,941.25,58.75,0,2.827422247,220.69377
READ_4521,1,a,33,16,0,1000,936.25,63.75,1,2.379215605,223.0730727
READ_4521,1,a,34,16,1,1000,936.25,63.75,0,1.862020586,224.9351781
READ_4521,1,r,1,0,0,1033,1533,500,0,2.301651861,236.1940618
READ_4521,1,r,2,1,0,1933,1393,540,0,2.25833295,238.4524966
READ_4521,1,r,3,2,0,1128,1708,580,0,1.999781435,240.4525289
READ_4521,1,r,4,3,0,1974,1354,620,0,1.965317655,242.4179294
READ_4521,1,r,5,4,0,1258,1918,660,0,1.77573361,244.1937543
READ_4521,1,r,6,5,0,2057,1372,685,0,1.930973232,246.1248206
READ_4521,1,r,7,6,0,1807,1097,710,0,2.827469761,248.9523877
READ_4521,1,r,8,7,0,1264,1999,735,0,2.706780584,251.6592527
READ_4521,1,r,9,8,0,1823,1063,760,1,2.362053846,254.0213932
READ_4521,1,r,10,8,1,2001,1241,760,0,2.41370067,256.4351862
READ_4521,1,r,11,9,0,2019,1254,765,1,2.551581635,258.9868606
READ_4521,1,r,12,9,1,1249,2014,765,1,3.137909853,262.1248773
READ_4521,1,r,13,9,0,1743.5,1361,382.5,1,2.292903921,264.4178709
READ_4521,1,r,14,9,1,1722.5,1340,382.5,1,2.861997399,267.2799607
READ_4521,1,r,15,9,0,1322,1513.25,191.25,1,2.948179844,270.2282249
READ_4521,1,r,16,9,1,1000,1191.25,191.25,0,2.724213364,272.9525538
READ_4521,1,r,17,10,0,1474.25,1278,196.25,0,2.051458288,275.0041094
READ_4521,1,r,18,11,0,1292.25,1091,201.25,0,2.051615275,277.0558091
READ_4521,1,r,19,12,0,1556.25,1350,206.25,1,2.60370132,279.6596031
READ_4521,1,r,20,12,1,1079,1285.25,206.25,1,2.24096517,281.9006607
READ_4521,1,r,21,12,0,1228.125,1125,103.125,0,2.82753476,284.7282787
READ_4521,1,r,22,13,0,1022,1130.125,108.125,0,2.414586716,287.1429642
READ_4521,1,r,23,14,0,1339.125,1226,113.125,0,2.033457618,289.1765131
READ_4521,1,r,24,15,0,1042,1160.125,118.125,1,2.068921096,291.2455155
READ_4521,1,r,25,15,1,1204,1322.125,118.125,0,2.086083615,293.3316885
READ_4521,1,r,26,16,0,1070,1193.125,123.125,1,2.172256937,295.5042039
READ_4521,1,r,27,16,1,1418.125,1295,123.125,1,2.241236951,297.7455252
READ_4521,1,r,28,16,0,1442.5625,1381,61.5625,0,2.258540492,300.0041596
READ_4150,1,a,1,0,0,1000,500,500,0,3.379187856,129.8753592
READ_4150,1,a,2,1,0,1000,1540,540,1,3.43089892,133.3063679
READ_4150,1,a,3,1,1,1000,460,540,1,3.482662439,136.7891167
READ_4150,1,a,4,1,0,1000,730,270,1,2.706827718,139.4960348
READ_4150,1,a,5,1,1,1000,1270,270,0,4.206795979,143.7029198
READ_4150,1,a,6,2,0,1000,1310,310,1,3.258472452,146.9614812
READ_4150,1,a,7,2,1,1000,1310,310,1,2.568984005,149.5305549
READ_4150,1,a,8,2,0,1000,1155,155,0,3.344684926,152.8753307
READ_4150,1,a,9,3,0,1000,805,195,0,3.068945044,155.9443734
READ_4150,1,a,10,4,0,1000,1235,235,0,3.32743156,159.2718935
READ_4150,1,a,11,5,0,1000,1260,260,1,4.56886503,163.840846
READ_4150,1,a,12,5,1,1000,740,260,1,2.965424087,166.8063598
READ_4150,1,a,13,5,0,1000,1130,130,0,4.517115575,171.3235688
READ_4150,1,a,14,6,0,1000,1155,155,,0,175.9097488
READ_4150,1,a,15,6,0,1000,1155,155,1,2.655182415,178.565019
READ_4150,1,a,16,6,1,1000,1155,155,1,2.689526078,181.254642
READ_4150,1,a,17,6,0,1000,1077.5,77.5,0,3.241296629,184.4960253
READ_4150,1,a,18,7,0,1000,897.5,102.5,0,2.827459498,187.3235818
READ_4150,1,a,19,8,0,1000,1127.5,127.5,0,3.724038131,191.0477062
READ_4150,1,a,20,9,0,1000,1132.5,132.5,1,4.362020016,195.4098201
READ_4150,1,a,21,9,1,1000,867.5,132.5,1,3.206814224,198.6167286
READ_4150,1,a,22,9,0,1000,933.75,66.25,1,2.637825278,201.2546436
READ_4150,1,a,23,9,1,1000,1066.25,66.25,0,2.741717985,203.9964615
READ_4150,1,a,24,10,0,1000,928.75,71.25,1,2.654622887,206.6511829
READ_4150,1,a,25,10,1,1000,1071.25,71.25,1,3.120610493,209.771885
READ_4150,1,a,26,10,0,1000,964.375,35.625,1,2.482743783,212.2547242
READ_4150,1,a,27,10,1,1000,1035.625,35.625,0,2.758504571,215.013323
READ_4150,1,a,28,11,0,1000,1040.625,40.625,1,3.51773516,218.5311627
READ_4150,1,a,29,11,1,1000,1040.625,40.625,1,2.430249305,220.9614994
READ_4150,1,a,30,11,0,1000,1020.3125,20.3125,1,2.379307592,223.3408986
READ_4150,1,a,31,11,1,1000,1020.3125,20.3125,1,2.793008263,226.1340163
READ_4150,1,a,32,11,0,1000,989.84375,10.15625,1,2.810227798,228.9443513
READ_4150,1,a,33,11,1,1000,989.84375,10.15625,1,3.137749825,232.082197
READ_4150,1,a,34,11,0,1000,994.921875,5.078125,1,2.98266757,235.0649535
READ_4150,1,a,35,11,1,1000,1005.078125,5.078125,0,2.758589337,237.823631
READ_4150,1,a,36,12,0,1000,989.921875,10.078125,0,2.67226663,240.4960018
READ_4150,1,a,37,13,0,1000,984.921875,15.078125,1,2.98269836,243.478791
READ_4150,1,a,38,13,1,1000,1015.078125,15.078125,0,3.706682515,247.1855674
READ_4150,1,a,39,14,0,1000,979.921875,20.078125,0,4.39663318,251.582304
READ_4150,1,a,40,15,0,1000,974.921875,25.078125,1,2.827438592,254.4098444
READ_4150,1,a,41,15,1,1000,1025.078125,25.078125,0,3.172388457,257.5823252
READ_4150,1,a,42,16,0,1000,969.921875,30.078125,1,2.706669211,260.2890918
READ_4150,1,a,43,16,1,1000,969.921875,30.078125,0,2.982773622,263.2719547
READ_4150,1,r,1,0,0,1261,1761,500,0,3.141059856,276.7374383
READ_4150,1,r,2,1,0,1232,1772,540,1,2.413628829,279.1511656
READ_4150,1,r,3,1,1,1657,1117,540,0,2.810250605,281.9615047
READ_4150,1,r,4,2,0,1668,1088,580,1,2.637883815,284.5994741
READ_4150,1,r,5,2,1,1274,1854,580,1,2.792989637,287.3925587
READ_4150,1,r,6,2,0,1116,1406,290,1,2.999858218,290.3925036
READ_4150,1,r,7,2,1,1616,1326,290,1,3.568928128,293.9615264
READ_4150,1,r,8,2,0,1475,1330,145,1,4.259493818,298.2211365
READ_4150,1,r,9,2,1,1398,1253,145,1,2.878270072,301.0994959
READ_4150,1,r,10,2,0,1269.5,1197,72.5,1,2.724092868,303.8236751
READ_4150,1,r,11,2,1,1312.5,1240,72.5,1,2.551589997,306.3753491
READ_4150,1,r,12,2,0,1008,1044.25,36.25,0,2.551585056,308.9270181
READ_4150,1,r,13,3,0,1233.25,1157,76.25,0,2.568919386,311.496028
READ_4150,1,r,14,4,0,1468.25,1352,116.25,1,3.258536311,314.7546567
READ_4150,1,r,15,4,1,1363,1479.25,116.25,1,3.327503781,318.0822505
READ_4150,1,r,16,4,0,1237.125,1179,58.125,0,3.085992008,321.1684934
READ_4150,1,r,17,5,0,1308,1391.125,83.125,1,2.672279174,323.8408635
READ_4150,1,r,18,5,1,1257,1340.125,83.125,0,3.224684895,327.0656521
READ_4150,1,r,19,6,0,1174,1282.125,108.125,0,3.154447845,330.2201908
READ_4150,1,r,20,7,0,1462.125,1329,133.125,0,3.13783155,333.3581299
READ_4150,1,r,21,8,0,1543.125,1385,158.125,0,2.741289597,336.0995309
READ_4150,1,r,22,9,0,1439.125,1276,163.125,1,2.861891348,338.9615108
READ_4150,1,r,23,9,1,1395.125,1232,163.125,1,2.362069811,341.3236688
READ_4150,1,r,24,9,0,1252,1333.5625,81.5625,0,2.948143353,344.2719042
READ_4150,1,r,25,10,0,1439.5625,1353,86.5625,1,2.65563361,346.9276328
READ_4150,1,r,26,10,1,1327,1413.5625,86.5625,0,3.085534351,350.0132538
READ_4150,1,r,27,11,0,1164,1255.5625,91.5625,1,3.103338882,353.1166786
READ_4150,1,r,28,11,1,1402.5625,1311,91.5625,0,4.000013684,357.116777
READ_4150,1,r,29,12,0,1434.5625,1338,96.5625,0,3.206770511,360.3236513
READ_4150,1,r,30,13,0,1321,1422.5625,101.5625,0,2.223972942,362.5477189
READ_4150,1,r,31,14,0,1307,1413.5625,106.5625,0,2.586136261,365.1339517
READ_4150,1,r,32,15,0,1353.5625,1242,111.5625,0,2.74126679,367.8753097
READ_4150,1,r,33,16,0,1068,1184.5625,116.5625,0,2.775785306,370.651192
READ_6001,1,a,1,0,0,1000,500,500,1,2.699701345,151.6292013
READ_6001,1,a,2,0,1,1000,500,500,1,2.672314905,154.3016119
READ_6001,1,a,3,0,0,1000,1250,250,1,3.051538112,157.3532428
READ_6001,1,a,4,0,1,1000,1250,250,1,3.017259068,160.3705885
READ_6001,1,a,5,0,0,1000,1125,125,1,2.879264449,163.249948
READ_6001,1,a,6,0,1,1000,1125,125,1,2.465341032,165.7153902
READ_6001,1,a,7,0,0,1000,937.5,62.5,1,3.034353546,168.7498463
READ_6001,1,a,8,0,1,1000,1062.5,62.5,1,2.568896959,171.3188326
READ_6001,1,a,9,0,0,1000,968.75,31.25,0,2.551637511,173.8705633
READ_6001,1,a,10,1,0,1000,1071.25,71.25,0,2.258486896,176.1291482
READ_6001,1,a,11,2,0,1000,1111.25,111.25,1,2.431030819,178.5602771
READ_6001,1,a,12,2,1,1000,1111.25,111.25,0,2.172374773,180.7327469
READ_6001,1,a,13,3,0,1000,848.75,151.25,1,2.930807882,183.6636514
READ_6001,1,a,14,3,1,1000,1151.25,151.25,1,2.810282155,186.4740301
READ_6001,1,a,15,3,0,1000,1075.625,75.625,1,2.793025368,189.267182
READ_6001,1,a,16,3,1,1000,924.375,75.625,0,3.96529979,193.2325745
READ_6001,1,a,17,4,0,1000,1115.625,115.625,1,3.379292388,196.6119585
READ_6001,1,a,18,4,1,1000,1115.625,115.625,1,3.086251245,199.6983105
READ_6001,1,a,19,4,0,1000,1057.8125,57.8125,0,2.999749885,202.6981486
READ_6001,1,a,20,5,0,1000,1082.8125,82.8125,1,2.5171342,205.215374
READ_6001,1,a,21,5,1,1000,1082.8125,82.8125,1,2.517130399,207.7326074
READ_6001,1,a,22,5,0,1000,958.59375,41.40625,1,2.724070821,210.4567832
READ_6001,1,a,23,5,1,1000,958.59375,41.40625,1,2.637894458,213.0947704
READ_6001,1,a,24,5,0,1000,1020.703125,20.703125,0,2.620980154,215.7158471
READ_6001,1,a,25,6,0,1000,1045.703125,45.703125,1,2.585615505,218.3015599
READ_6001,1,a,26,6,1,1000,1045.703125,45.703125,1,2.155214534,220.4568615
READ_6001,1,a,27,6,0,1000,1022.851563,22.8515625,1,2.690356627,223.1473127
READ_6001,1,a,28,6,1,1000,1022.851563,22.8515625,1,2.033555307,225.1809646
READ_6001,1,a,29,6,0,1000,1011.425781,11.42578125,1,2.499893758,227.6809549
READ_6001,1,a,30,6,1,1000,1011.425781,11.42578125,1,2.275659678,229.9567358
READ_6001,1,a,31,6,0,1000,994.2871094,5.712890625,0,2.189688196,232.1465217
READ_6001,1,a,32,7,0,1000,969.2871094,30.71289063,1,2.448178133,234.5947911
READ_6001,1,a,33,7,1,1000,969.2871094,30.71289063,1,2.413629589,237.0085157
READ_6001,1,a,34,7,0,1000,1015.356445,15.35644531,0,2.293164679,239.301775
READ_6001,1,a,35,8,0,1000,959.6435547,40.35644531,0,2.172242873,241.4741114
READ_6001,1,a,36,9,0,1000,954.6435547,45.35644531,1,2.379650075,243.853896
READ_6001,1,a,37,9,1,1000,1045.356445,45.35644531,0,2.309717496,246.1637173
READ_6001,1,a,38,10,0,1000,949.6435547,50.35644531,0,2.293070411,248.4568865
READ_6001,1,a,39,11,0,1000,944.6435547,55.35644531,1,2.206774312,250.6637715
READ_6001,1,a,40,11,1,1000,1055.356445,55.35644531,0,2.120538652,252.7844154
READ_6001,1,a,41,12,0,1000,1060.356445,60.35644531,1,2.25856596,255.0430844
READ_6001,1,a,42,12,1,1000,1060.356445,60.35644531,1,2.379198119,257.4223684
READ_6001,1,a,43,12,0,1000,969.8217773,30.17822266,1,2.68956675,260.1120173
READ_6001,1,a,44,12,1,1000,1030.178223,30.17822266,0,2.655124637,262.767243
READ_6001,1,a,45,13,0,1000,1035.178223,35.17822266,1,2.189615215,264.9569544
READ_6001,1,a,46,13,1,1000,964.8217773,35.17822266,1,2.706742953,267.6637928
READ_6001,1,a,47,13,0,1000,982.4108887,17.58911133,1,2.930979694,270.5948633
READ_6001,1,a,48,13,1,1000,982.4108887,17.58911133,1,2.517068061,273.1120336
READ_6001,1,a,49,13,0,1000,1008.794556,8.794555664,0,2.913789807,276.0259181
READ_6001,1,a,50,14,0,1000,1013.794556,13.79455566,1,2.517077563,278.5430884
READ_6001,1,a,51,14,1,1000,1013.794556,13.79455566,1,2.189637261,280.7328108
READ_6001,1,a,52,14,0,1000,993.1027222,6.897277832,0,2.206686126,282.9395862
READ_6001,1,a,53,15,0,1000,1011.897278,11.89727783,0,2.206762529,285.1465848
READ_6001,1,a,54,16,0,1000,1016.897278,16.89727783,1,2.46533305,287.6120213
READ_6001,1,a,55,16,1,1000,1016.897278,16.89727783,1,2.327483635,289.9396007
READ_6001,1,a,56,16,0,1000,991.5513611,8.448638916,0,2.189619396,292.1293079
READ_6001,1,r,1,0,0,1144,1644,500,1,2.902024524,313.7154472
READ_6001,1,r,2,0,1,1064,1564,500,1,2.517178674,316.2327152
READ_6001,1,r,3,0,0,1048,1298,250,1,2.499928729,318.732745
READ_6001,1,r,4,0,1,1478,1228,250,0,2.39646517,321.1293045
READ_6001,1,r,5,1,0,1480,1190,290,0,2.706757397,323.8361485
READ_6001,1,r,6,2,0,1081,1411,330,1,2.724082225,326.5603174
READ_6001,1,r,7,2,1,1710,1380,330,1,2.775785306,329.3361894
READ_6001,1,r,8,2,0,1560,1395,165,0,2.430992428,331.7672932
READ_6001,1,r,9,3,0,1369,1164,205,1,3.155010793,334.9224001
READ_6001,1,r,10,3,1,1231,1436,205,0,3.517101891,338.4395895
READ_6001,1,r,11,4,0,1318,1073,245,1,2.637854927,341.0775394
READ_6001,1,r,12,4,1,1385,1630,245,1,2.948236101,344.0258633
READ_6001,1,r,13,4,0,1040,1162.5,122.5,1,3.603799009,347.6297623
READ_6001,1,r,14,4,1,1433.5,1311,122.5,1,2.671888417,350.3017484
READ_6001,1,r,15,4,0,1214.25,1153,61.25,1,4.086154696,354.3880206
READ_6001,1,r,16,4,1,1141.25,1080,61.25,1,2.654943323,357.0430661
READ_6001,1,r,17,4,0,1026,1056.625,30.625,0,2.534469291,359.5776331
READ_6001,1,r,18,5,0,1324,1379.625,55.625,1,2.568854766,362.1465886
READ_6001,1,r,19,5,1,1010,1065.625,55.625,0,2.292962079,364.4396434
READ_6001,1,r,20,6,0,1160,1240.625,80.625,1,2.810227798,367.2499545
READ_6001,1,r,21,6,1,1164.625,1084,80.625,0,2.20686668,369.4569063
READ_6001,1,r,22,7,0,1067,1172.625,105.625,0,2.517188556,371.9741964
READ_6001,1,r,23,8,0,1144.625,1014,130.625,0,2.551583915,374.525881
READ_6001,1,r,24,9,0,1502.625,1367,135.625,1,2.430911464,376.9570331
READ_6001,1,r,25,9,1,1168.625,1033,135.625,1,2.241158268,379.1982814
READ_6001,1,r,26,9,0,1317.8125,1250,67.8125,1,2.482645714,381.6810229
READ_6001,1,r,27,9,1,1422.8125,1355,67.8125,1,2.327504921,384.0086096
READ_6001,1,r,28,9,0,1429.90625,1396,33.90625,0,2.482763549,386.4914628
READ_6001,1,r,29,10,0,1211.90625,1173,38.90625,1,2.206770891,388.698344
READ_6001,1,r,30,10,1,1282,1320.90625,38.90625,0,2.223957737,390.922399
READ_6001,1,r,31,11,0,1199,1242.90625,43.90625,1,2.310319976,393.2328079
READ_6001,1,r,32,11,1,1303,1346.90625,43.90625,1,2.241206162,395.4741034
READ_6001,1,r,33,11,0,1253,1274.953125,21.953125,1,2.241286366,397.7154837
READ_6001,1,r,34,11,1,1206,1227.953125,21.953125,1,2.327547874,400.0431262
READ_6001,1,r,35,11,0,1149.976563,1139,10.9765625,0,2.275792338,402.3190022
READ_6001,1,r,36,12,0,1112.976563,1097,15.9765625,1,2.310292988,404.6293879
READ_6001,1,r,37,12,1,1138,1153.976563,15.9765625,0,2.430980644,407.060475
READ_6001,1,r,38,13,0,1150.976563,1130,20.9765625,0,2.241211864,409.3017868
READ_6001,1,r,39,14,0,1368,1393.976563,25.9765625,0,3.292914944,412.5948112
READ_6001,1,r,40,15,0,1122.976563,1092,30.9765625,,0,417.1810608
READ_6001,1,r,41,15,0,1090.976563,1060,30.9765625,1,2.275830729,419.4569888
READ_6001,1,r,42,15,1,1361.976563,1331,30.9765625,1,2.085988587,421.5430724
READ_6001,1,r,43,15,0,1292.488281,1277,15.48828125,1,2.172362229,423.7155236
READ_6001,1,r,44,15,1,1337.488281,1322,15.48828125,1,2.189528549,425.9051521
READ_6001,1,r,45,15,0,1164.744141,1157,7.744140625,1,2.189673372,428.0949262
READ_6001,1,r,46,15,1,1073,1080.744141,7.744140625,0,2.603219336,430.6982402
READ_6001,1,r,47,16,0,1162,1174.744141,12.74414063,1,2.242046213,432.9403772
READ_6001,1,r,48,16,1,1288.744141,1276,12.74414063,0,2.481918176,435.4223954
5290,1,a,1,0,0,1000,1500,500,0,2.96950749,187.8704832
5290,1,a,2,1,0,1000,1540,540,1,2.293166363,190.1637526
5290,1,a,3,1,1,1000,460,540,0,2.70680969,192.8706638
5290,1,a,4,2,0,1000,1580,580,0,2.551431688,195.4222008
5290,1,a,5,3,0,1000,380,620,1,2.775635641,198.197933
5290,1,a,6,3,1,1000,1620,620,0,2.534287539,200.7323098
5290,1,a,7,4,0,1000,340,660,1,2.793278876,203.5256894
5290,1,a,8,4,1,1000,1660,660,1,2.67227774,206.198074
5290,1,a,9,4,0,1000,1330,330,1,2.551610721,208.7497816
5290,1,a,10,4,1,1000,670,330,1,2.741593654,211.4914631
5290,1,a,11,4,0,1000,1165,165,1,2.654795291,214.1463557
5290,1,a,12,4,1,1000,1165,165,0,2.844714366,216.9911799
5290,1,a,13,5,0,1000,1190,190,1,2.499788278,219.4910522
5290,1,a,14,5,1,1000,810,190,1,2.896559235,222.387722
5290,1,a,15,5,0,1000,1095,95,1,2.844464252,225.2322863
5290,1,a,16,5,1,1000,905,95,0,3.758877304,228.9912688
5290,1,a,17,6,0,1000,880,120,1,2.447702419,231.4390693
5290,1,a,18,6,1,1000,1120,120,1,2.534688556,233.9738799
5290,1,a,19,6,0,1000,1060,60,1,3.051663176,237.0256427
5290,1,a,20,6,1,1000,1060,60,1,2.637859823,239.6635998
5290,1,a,21,6,0,1000,970,30,0,2.396448622,242.0601526
5290,1,a,22,7,0,1000,1055,55,1,3.017080671,245.0773325
5290,1,a,23,7,1,1000,945,55,0,2.741488363,247.8189155
5290,1,a,24,8,0,1000,920,80,1,2.25814407,250.0771572
5290,1,a,25,8,1,1000,920,80,0,2.672525952,252.7497759
5290,1,a,26,9,0,1000,1085,85,1,2.89620117,255.6460778
5290,1,a,27,9,1,1000,915,85,1,2.620832367,258.2670314
5290,1,a,28,9,0,1000,1042.5,42.5,1,2.310270981,260.5774016
5290,1,a,29,9,1,1000,957.5,42.5,1,2.689613465,263.2671231
5290,1,a,30,9,0,1000,978.75,21.25,0,2.775729528,266.0429636
5290,1,a,31,10,0,1000,973.75,26.25,1,2.465080717,268.5081348
5290,1,a,32,10,1,1000,973.75,26.25,0,2.603712545,271.1119534
5290,1,a,33,11,0,1000,968.75,31.25,1,2.482587112,273.5946416
5290,1,a,34,11,1,1000,1031.25,31.25,1,3.241728593,276.8364568
5290,1,a,35,11,0,1000,1015.625,15.625,0,3.292557805,280.1291017
5290,1,a,36,12,0,1000,1020.625,20.625,0,3.155089117,283.2842927
5290,1,a,37,13,0,1000,1025.625,25.625,1,2.362001437,285.6463907
5290,1,a,38,13,1,1000,1025.625,25.625,0,2.448125102,288.0946636
5290,1,a,39,14,0,1000,969.375,30.625,0,2.913632683,291.0083864
5290,1,a,40,15,0,1000,1035.625,35.625,0,2.39647675,293.4049658
5290,1,a,41,16,0,1000,959.375,40.625,0,2.327494194,295.7325573
5290,1,r,1,0,0,1282,1782,500,0,2.187755482,309.7325531
5290,1,r,2,1,0,1824,1284,540,0,2.344676354,312.0773309
5290,1,r,3,2,0,1892,1312,580,1,2.758608565,314.8360414
5290,1,r,4,2,1,1687,1107,580,1,2.620459478,317.4565963
5290,1,r,5,2,0,1634,1344,290,1,2.310102972,319.7667889
5290,1,r,6,2,1,1349,1639,290,1,2.276098236,322.0429841
5290,1,r,7,2,0,1287,1142,145,1,2.379136464,324.422219
5290,1,r,8,2,1,1336,1191,145,1,2.49989851,326.9222103
5290,1,r,9,2,0,1237,1309.5,72.5,0,2.603164425,329.5254838
5290,1,r,10,3,0,1373.5,1261,112.5,0,2.189738902,331.7153208
5290,1,r,11,4,0,1323,1475.5,152.5,0,1.602899867,333.3183149
5290,1,r,12,5,0,1350,1527.5,177.5,1,2.41433931,335.7327599
5290,1,r,13,5,1,1397.5,1220,177.5,0,2.723797994,338.4566609
5290,1,r,14,6,0,1433.5,1231,202.5,0,2.51721409,340.9739787
5290,1,r,15,7,0,1296.5,1069,227.5,0,2.792963004,343.7670402
5290,1,r,16,8,0,1142,1394.5,252.5,1,2.82737712,346.5945066
5290,1,r,17,8,1,1259,1511.5,252.5,1,2.499960088,349.0945633
5290,1,r,18,8,0,1492.25,1366,126.25,0,3.499946404,352.5946138
5290,1,r,19,9,0,1026,1157.25,131.25,1,2.638244115,355.2329492
5290,1,r,20,9,1,1009,1140.25,131.25,1,2.430563971,357.6642015
5290,1,r,21,9,0,1281.625,1216,65.625,0,2.430382278,360.094867
5290,1,r,22,10,0,1369,1439.625,70.625,0,2.447963935,362.5429267
5290,1,r,23,11,0,1321.625,1246,75.625,0,1.690389272,364.2334247
5290,1,r,24,12,0,1158.625,1078,80.625,0,3.792020328,368.025721
5290,1,r,25,13,0,1078,1163.625,85.625,0,2.482692023,370.5085088
5290,1,r,26,14,0,1097,1187.625,90.625,1,2.206710481,372.7153185
5290,1,r,27,14,1,1136.625,1046,90.625,0,3.620434011,376.3358464
5290,1,r,28,15,0,1062,1157.625,95.625,0,2.56858458,378.904521
5290,1,r,29,16,0,1455.625,1355,100.625,0,2.948601001,381.853233
4745,1,a,1,0,0,1000,1500,500,0,2.686151047,96.84421187
4745,1,a,2,1,0,1000,1540,540,1,2.482782555,99.3271001
4745,1,a,3,1,1,1000,1540,540,1,2.930947004,102.2581353
4745,1,a,4,1,0,1000,1270,270,1,2.862021727,105.1202509
4745,1,a,5,1,1,1000,1270,270,1,2.41366494,107.534001
4745,1,a,6,1,0,1000,865,135,0,2.465907402,110.0000057
4745,1,a,7,2,0,1000,825,175,1,2.499488937,112.4995992
4745,1,a,8,2,1,1000,825,175,1,2.56883424,115.0685368
4745,1,a,9,2,0,1000,1087.5,87.5,0,3.224013234,118.2926451
4745,1,a,10,3,0,1000,872.5,127.5,0,3.155068191,121.4478022
4745,1,a,11,4,0,1000,832.5,167.5,0,3.741254246,125.1891488
4745,1,a,12,5,0,1000,807.5,192.5,1,4.258580024,129.4478227
4745,1,a,13,5,1,1000,807.5,192.5,1,2.585939742,132.033878
4745,1,a,14,5,0,1000,903.75,96.25,1,2.672468851,134.7064332
4745,1,a,15,5,1,1000,1096.25,96.25,1,2.861813044,137.5683424
4745,1,a,16,5,0,1000,951.875,48.125,0,3.982854586,141.5512981
4745,1,a,17,6,0,1000,926.875,73.125,1,3.275747104,144.8271372
4745,1,a,18,6,1,1000,1073.125,73.125,0,2.672326308,147.4995555
4745,1,a,19,7,0,1000,901.875,98.125,0,2.586097489,150.0857423
4745,1,a,20,8,0,1000,1123.125,123.125,,0,154.6717957
4745,1,a,21,8,0,1000,876.875,123.125,1,3.086291918,157.7581955
4745,1,a,22,8,1,1000,876.875,123.125,1,2.672187947,160.4304732
4745,1,a,23,8,0,1000,1061.5625,61.5625,0,2.861920236,163.2925649
4745,1,a,24,9,0,1000,1066.5625,66.5625,1,2.672397769,165.9650721
4745,1,a,25,9,1,1000,1066.5625,66.5625,,0,170.5510058
4745,1,a,26,9,1,1000,933.4375,66.5625,,0,175.1375795
4745,1,a,27,9,1,1000,933.4375,66.5625,,0,179.7236519
4745,1,a,28,9,1,1000,933.4375,66.5625,1,2.586490907,182.3102356
4745,1,a,29,9,0,1000,1033.28125,33.28125,0,2.447690447,184.7580146
4745,1,a,30,10,0,1000,961.71875,38.28125,0,2.517382035,187.2754985
4745,1,a,31,11,0,1000,1043.28125,43.28125,,0,191.8615747
4745,1,a,32,11,0,1000,1043.28125,43.28125,1,3.637897879,195.4995729
4745,1,a,33,11,1,1000,1043.28125,43.28125,0,4.327498079,199.827174
4745,1,a,34,12,0,1000,951.71875,48.28125,,0,204.412815
4745,1,a,35,12,0,1000,1048.28125,48.28125,,0,208.9994887
4745,1,a,36,12,0,1000,1048.28125,48.28125,,0,213.5857033
4745,1,a,37,12,0,1000,1048.28125,48.28125,,0,218.171797
4745,1,a,38,12,0,1000,1048.28125,48.28125,1,3.224228759,221.3961196
4745,1,a,39,12,1,1000,951.71875,48.28125,1,2.55169833,223.9479119
4745,1,a,40,12,0,1000,1024.140625,24.140625,1,2.7067669,226.6547784
4745,1,a,41,12,1,1000,975.859375,24.140625,1,2.465054807,229.1199263
4745,1,a,42,12,0,1000,1012.070313,12.0703125,0,2.586511053,231.7065274
4745,1,a,43,13,0,1000,1017.070313,17.0703125,1,2.654862739,234.3615167
4745,1,a,44,13,1,1000,982.9296875,17.0703125,1,2.999649915,237.3612586
4745,1,a,45,13,0,1000,1008.535156,8.53515625,0,3.465711643,240.8270687
4745,1,a,46,14,0,1000,1013.535156,13.53515625,1,2.465521586,243.2927808
4745,1,a,47,14,1,1000,986.4648438,13.53515625,0,2.620535801,245.9134082
4745,1,a,48,15,0,1000,1018.535156,18.53515625,0,2.620649455,248.5341473
4745,1,a,49,16,0,1000,976.4648438,23.53515625,1,4.568762779,253.1030017
4745,1,a,50,16,1,1000,976.4648438,23.53515625,1,2.499634521,255.602724
4745,1,a,51,16,0,1000,988.2324219,11.76757813,1,2.620858898,258.2236784
4745,1,a,52,16,1,1000,1011.767578,11.76757813,1,2.517135341,260.7409102
4745,1,a,53,16,0,1000,994.1162109,5.883789063,1,4.55180134,265.2928112
4745,1,a,54,16,1,1000,994.1162109,5.883789063,0,3.172252756,268.4652475
4745,1,r,1,0,0,1841,1341,500,1,2.832771588,295.5857831
4745,1,r,2,0,1,1320,1820,500,1,3.051325628,298.6371931
4745,1,r,3,0,0,1210,1460,250,0,3.189806032,301.8270976
4745,1,r,4,1,0,1662,1372,290,0,2.655124637,304.4823169
4745,1,r,5,2,0,1274,1604,330,0,3.792880164,308.2753069
4745,1,r,6,3,0,1361,1731,370,1,2.431064269,310.7064727
4745,1,r,7,3,1,1394,1024,370,0,2.586271962,313.2928709
4745,1,r,8,4,0,1173,1583,410,0,2.827185816,316.1203072
4745,1,r,9,5,0,1833,1398,435,0,2.499953436,318.6203598
4745,1,r,10,6,0,1786,1326,460,1,1.654662419,320.2751108
4745,1,r,11,6,1,1379,1839,460,,0,324.8615694
4745,1,r,12,6,1,1109,1569,460,,0,329.4477794
4745,1,r,13,6,1,1311,1771,460,,0,334.0337203
4745,1,r,14,6,1,1039,1499,460,1,3.844764179,337.8785856
4745,1,r,15,6,0,1287,1517,230,0,3.017426318,340.8960966
4745,1,r,16,7,0,1387,1132,255,0,2.448227168,343.3444181
4745,1,r,17,8,0,1212,1492,280,0,2.827491047,346.1720156
4745,1,r,18,9,0,1173,1458,285,1,3.689580054,349.8616815
4745,1,r,19,9,1,1341,1626,285,1,2.396270551,352.2580384
4745,1,r,20,9,0,1218,1360.5,142.5,1,2.482750245,354.7408772
4745,1,r,21,9,1,1002,1144.5,142.5,0,2.603451966,357.3444283
4745,1,r,22,10,0,1005,1152.5,147.5,1,2.259103441,359.6036603
4745,1,r,23,10,1,1205.5,1058,147.5,0,2.482060719,362.0858077
4745,1,r,24,11,0,1234,1386.5,152.5,0,2.551491548,364.6373832
4745,1,r,25,12,0,1439.5,1282,157.5,1,2.913819456,367.5513144
4745,1,r,26,12,1,1323,1480.5,157.5,1,3.086607032,370.6380066
4745,1,r,27,12,0,1225.75,1147,78.75,1,2.844090998,373.4822071
4745,1,r,28,12,1,1252.75,1174,78.75,0,2.32769992,375.8100039
4745,1,r,29,13,0,1380.75,1297,83.75,1,3.844652046,379.6547913
4745,1,r,30,13,1,1229,1312.75,83.75,1,3.53426669,383.1891393
4745,1,r,31,13,0,1295,1336.875,41.875,0,4.017056467,387.2064007
4745,1,r,32,14,0,1267.875,1221,46.875,0,2.862160088,390.0686455
4745,1,r,33,15,0,1360,1411.875,51.875,0,3.379169611,393.4479155
4745,1,r,34,16,0,1058.875,1002,56.875,0,2.585940502,396.0339426
5285,1,a,1,0,0,1000,500,500,1,2.914284715,94.98170398
5285,1,a,2,0,1,1000,500,500,1,3.172402901,98.15421712
5285,1,a,3,0,0,1000,1250,250,1,2.63780095,100.7921279
5285,1,a,4,0,1,1000,1250,250,0,2.948159318,103.7403792
5285,1,a,5,1,0,1000,1290,290,1,2.706870671,106.4473643
5285,1,a,6,1,1,1000,1290,290,1,2.482635071,108.9300921
5285,1,a,7,1,0,1000,855,145,1,3.292985646,112.2231644
5285,1,a,8,1,1,1000,855,145,1,3.293057487,115.5163215
5285,1,a,9,1,0,1000,927.5,72.5,1,3.620638812,119.1370793
5285,1,a,10,1,1,1000,1072.5,72.5,1,3.827301751,122.9644765
5285,1,a,11,1,0,1000,963.75,36.25,1,3.879273572,126.8438511
5285,1,a,12,1,1,1000,1036.25,36.25,1,2.810236161,129.6541877
5285,1,a,13,1,0,1000,1018.125,18.125,1,3.275837191,132.9301077
5285,1,a,14,1,1,1000,1018.125,18.125,1,3.327481354,136.2576921
5285,1,a,15,1,0,1000,990.9375,9.0625,1,2.810303061,139.0681012
5285,1,a,16,1,1,1000,1009.0625,9.0625,0,2.879054627,141.9472512
5285,1,a,17,2,0,1000,950.9375,49.0625,0,2.913782205,144.8611323
5285,1,a,18,3,0,1000,910.9375,89.0625,1,2.310077844,147.1713029
5285,1,a,19,3,1,1000,1089.0625,89.0625,1,3.051809513,150.2232382
5285,1,a,20,3,0,1000,955.46875,44.53125,0,2.844611754,153.0679613
5285,1,a,21,4,0,1000,1084.53125,84.53125,1,2.706952776,155.7750129
5285,1,a,22,4,1,1000,915.46875,84.53125,1,3.068743963,158.8438732
5285,1,a,23,4,0,1000,957.734375,42.265625,1,3.620657437,162.4646371
5285,1,a,24,4,1,1000,957.734375,42.265625,1,3.223768061,165.6885222
5285,1,a,25,4,0,1000,1021.132813,21.1328125,0,3.241547504,168.9301617
5285,1,a,26,5,0,1000,953.8671875,46.1328125,0,3.637759138,172.5680227
5285,1,a,27,6,0,1000,928.8671875,71.1328125,1,2.655109053,175.2232526
5285,1,a,28,6,1,1000,928.8671875,71.1328125,1,2.99983313,178.2231922
5285,1,a,29,6,0,1000,1035.566406,35.56640625,1,2.672283355,180.8955869
5285,1,a,30,6,1,1000,1035.566406,35.56640625,0,4.155129389,185.0508045
5285,1,a,31,7,0,1000,939.4335938,60.56640625,0,3.327509483,188.3784637
5285,1,a,32,8,0,1000,1085.566406,85.56640625,0,2.34460092,190.7231593
5285,1,a,33,9,0,1000,909.4335938,90.56640625,0,3.361954636,194.0852056
5285,1,a,34,10,0,1000,904.4335938,95.56640625,1,2.896554306,196.9818594
5285,1,a,35,10,1,1000,1095.566406,95.56640625,1,4.516694409,201.4986576
5285,1,a,36,10,0,1000,1047.783203,47.78320313,1,4.310702371,205.8094847
5285,1,a,37,10,1,1000,952.2167969,47.78320313,1,2.775690657,208.5852753
5285,1,a,38,10,0,1000,1023.891602,23.89160156,1,2.430917165,211.0162981
5285,1,a,39,10,1,1000,976.1083984,23.89160156,0,3.568839182,214.5852236
5285,1,a,40,11,0,1000,971.1083984,28.89160156,1,2.603209453,217.1885422
5285,1,a,41,11,1,1000,1028.891602,28.89160156,0,2.620857757,219.8094968
5285,1,a,42,12,0,1000,1033.891602,33.89160156,1,2.741196849,222.5508115
5285,1,a,43,12,1,1000,1033.891602,33.89160156,1,2.586047694,225.1369516
5285,1,a,44,12,0,1000,983.0541992,16.94580078,0,2.706842543,227.8438899
5285,1,a,45,13,0,1000,1021.945801,21.94580078,0,2.844704121,230.6886837
5285,1,a,46,14,0,1000,973.0541992,26.94580078,1,2.655247034,233.3440258
5285,1,a,47,14,1,1000,973.0541992,26.94580078,0,2.706729269,236.0508528
5285,1,a,48,15,0,1000,968.0541992,31.94580078,1,2.862347484,238.9133276
5285,1,a,49,15,1,1000,1031.945801,31.94580078,0,2.775329169,241.6887754
5285,1,a,50,16,0,1000,1036.945801,36.94580078,1,2.844704882,244.5336045
5285,1,a,51,16,1,1000,963.0541992,36.94580078,1,3.535454546,248.0691503
5285,1,a,52,16,0,1000,1018.4729,18.47290039,1,3.395285676,251.4645325
5285,1,a,53,16,1,1000,1018.4729,18.47290039,1,2.741308603,254.2059449
5285,1,a,54,16,0,1000,990.7635498,9.236450195,0,3.32750112,257.5335331
5285,1,r,1,0,0,1764,1264,500,1,2.932585295,269.4995589
5285,1,r,2,0,1,1229,1729,500,1,2.637308703,272.1370132
5285,1,r,3,0,0,1092,1342,250,1,2.637670951,274.7749437
5285,1,r,4,0,1,1171,1421,250,1,2.672335431,277.4473624
5285,1,r,5,0,0,1148,1273,125,1,2.637782325,280.0852318
5285,1,r,6,0,1,1351,1476,125,1,2.706850905,282.7921804
5285,1,r,7,0,0,1171.5,1109,62.5,1,3.379223587,286.1715142
5285,1,r,8,0,1,1333.5,1271,62.5,0,2.58606784,288.7576877
5285,1,r,9,1,0,1090,1192.5,102.5,0,2.7068319,291.4646382
5285,1,r,10,2,0,1386,1528.5,142.5,0,2.758352906,294.2230937
5285,1,r,11,3,0,1181,1363.5,182.5,1,2.586397019,296.8096344
5285,1,r,12,3,1,1193,1375.5,182.5,1,3.482443493,300.2921904
5285,1,r,13,3,0,1484.25,1393,91.25,0,3.103208503,303.3954963
5285,1,r,14,4,0,1255,1386.25,131.25,0,2.689219706,306.0848004
5285,1,r,15,5,0,1369,1525.25,156.25,1,3.258939612,309.3438513
5285,1,r,16,5,1,1031,1187.25,156.25,1,3.189552116,312.5334962
5285,1,r,17,5,0,1346,1424.125,78.125,1,2.603355417,315.1369554
5285,1,r,18,5,1,1197,1275.125,78.125,0,2.965472742,318.1025216
5285,1,r,19,6,0,1034,1137.125,103.125,1,2.70639743,320.809024
5285,1,r,20,6,1,1358.125,1255,103.125,0,2.655426828,323.4645519
5285,1,r,21,7,0,1143.125,1015,128.125,0,2.862025528,326.3266736
5285,1,r,22,8,0,1296,1449.125,153.125,0,2.689548505,329.016319
5285,1,r,23,9,0,1207.125,1049,158.125,1,3.016863749,332.0332797
5285,1,r,24,9,1,1452.125,1294,158.125,0,3.620877523,335.6542599
5285,1,r,25,10,0,1024,1187.125,163.125,1,2.844702601,338.4990579
5285,1,r,26,10,1,1162,1325.125,163.125,0,2.879216555,341.3783828
5285,1,r,27,11,0,1172,1340.125,168.125,0,3.103498149,344.4819832
5285,1,r,28,12,0,1142,1315.125,173.125,1,2.275510673,346.7575934
5285,1,r,29,12,1,1239.125,1066,173.125,,0,351.3438266
5285,1,r,30,12,1,1518.125,1345,173.125,0,3.741374742,355.0852987
5285,1,r,31,13,0,1529.125,1351,178.125,1,3.861971932,358.9473706
5285,1,r,32,13,1,1033,1211.125,178.125,0,3.361977823,362.3094404
5285,1,r,33,14,0,1352.125,1169,183.125,0,3.448211203,365.757766
5285,1,r,34,15,0,1151,1339.125,188.125,0,3.310178574,369.0680541
5285,1,r,35,16,0,1362.125,1169,193.125,0,3.413702571,372.4818543
5185,1,a,1,0,0,1000,1500,500,0,3.011090961,97.38526055
5185,1,a,2,1,0,1000,460,540,0,2.688975673,100.0743415
5185,1,a,3,2,0,1000,420,580,1,2.551656897,102.6260912
5185,1,a,4,2,1,1000,1580,580,1,2.15603444,104.7822115
5185,1,a,5,2,0,1000,710,290,1,2.154092818,106.9364047
5185,1,a,6,2,1,1000,1290,290,1,2.344756767,109.28125
5185,1,a,7,2,0,1000,855,145,1,2.258393008,111.5397327
5185,1,a,8,2,1,1000,1145,145,1,2.207024807,113.7468681
5185,1,a,9,2,0,1000,1072.5,72.5,0,2.241189437,115.9881644
5185,1,a,10,3,0,1000,887.5,112.5,1,4.086198029,120.0744898
5185,1,a,11,3,1,1000,887.5,112.5,0,2.585781615,122.6603584
5185,1,a,12,4,0,1000,1152.5,152.5,0,2.189774102,124.850226
5185,1,a,13,5,0,1000,1177.5,177.5,,0,129.4361491
5185,1,a,14,5,0,1000,1177.5,177.5,1,4.086888696,133.5231366
5185,1,a,15,5,1,1000,1177.5,177.5,1,3.171776854,136.6950168
5185,1,a,16,5,0,1000,1088.75,88.75,0,3.77566709,140.470782
5185,1,a,17,6,0,1000,886.25,113.75,0,2.310406262,142.7813046
5185,1,a,18,7,0,1000,1138.75,138.75,0,2.05156738,144.8329639
5185,1,a,19,8,0,1000,836.25,163.75,0,2.051680654,146.8847396
5185,1,a,20,9,0,1000,831.25,168.75,1,2.3274996,149.2123358
5185,1,a,21,9,1,1000,831.25,168.75,0,3.275737221,152.4881718
5185,1,a,22,10,0,1000,1173.75,173.75,0,2.223592448,154.7118829
5185,1,a,23,11,0,1000,821.25,178.75,0,2.603781524,157.3157678
5185,1,a,24,12,0,1000,1183.75,183.75,0,2.896419746,160.2123004
5185,1,a,25,13,0,1000,1188.75,188.75,1,2.723673222,162.936063
5185,1,a,26,13,1,1000,811.25,188.75,,0,167.5225664
5185,1,a,27,13,1,1000,811.25,188.75,0,2.259212153,169.781885
5185,1,a,28,14,0,1000,1193.75,193.75,0,2.257875673,172.0398785
5185,1,a,29,15,0,1000,1198.75,198.75,1,2.189739892,174.2297225
5185,1,a,30,15,1,1000,1198.75,198.75,1,2.447881265,176.6777057
5185,1,a,31,15,0,1000,1099.375,99.375,1,2.569055086,179.2468645
5185,1,a,32,15,1,1000,1099.375,99.375,1,2.430803511,181.677773
5185,1,a,33,15,0,1000,1049.6875,49.6875,1,2.569542392,184.2474108
5185,1,a,34,15,1,1000,950.3125,49.6875,1,2.861390357,187.1088931
5185,1,a,35,15,0,1000,1024.84375,24.84375,1,2.827460258,189.9364712
5185,1,a,36,15,1,1000,1024.84375,24.84375,1,2.862041112,192.7986089
5185,1,a,37,15,0,1000,987.578125,12.421875,0,2.913584926,195.7122865
5185,1,a,38,16,0,1000,982.578125,17.421875,1,2.53433321,198.24673
5185,1,a,39,16,1,1000,982.578125,17.421875,0,3.603049045,201.8498836
5185,1,r,1,0,0,1656,1156,500,1,3.280504989,207.5398604
5185,1,r,2,0,1,1055,1555,500,1,2.568953216,210.1089144
5185,1,r,3,0,0,1171,1421,250,0,2.585772492,212.6947728
5185,1,r,4,1,0,1607,1317,290,0,2.534558998,215.2294295
5185,1,r,5,2,0,1618,1288,330,1,2.672435781,217.9019591
5185,1,r,6,2,1,1559,1229,330,1,2.673226037,220.5752821
5185,1,r,7,2,0,1256,1091,165,0,2.688682225,223.2640727
5185,1,r,8,3,0,1282,1077,205,1,2.344689867,225.6088849
5185,1,r,9,3,1,1239,1034,205,1,2.241342623,227.850364
5185,1,r,10,3,0,1159,1261.5,102.5,0,3.137671902,230.9881481
5185,1,r,11,4,0,1364,1506.5,142.5,1,2.482775713,233.471015
5185,1,r,12,4,1,1098,1240.5,142.5,0,1.775343993,235.2465684
5185,1,r,13,5,0,1295.5,1128,167.5,1,3.25876514,238.5054351
5185,1,r,14,5,1,1227.5,1060,167.5,0,1.79300104,240.2985387
5185,1,r,15,6,0,1371.5,1179,192.5,1,3.39650014,243.6951464
5185,1,r,16,6,1,1116,1308.5,192.5,0,2.517046774,246.2122894
5185,1,r,17,7,0,1387.5,1170,217.5,0,2.672537271,248.8849342
5185,1,r,18,8,0,1535.5,1293,242.5,1,2.551903211,251.4369549
5185,1,r,19,8,1,1455.5,1213,242.5,0,2.551149445,253.9881975
5185,1,r,20,9,0,1191,1438.5,247.5,0,2.673096799,256.6614098
5185,1,r,21,10,0,1016,1268.5,252.5,0,2.843611674,259.5052024
5185,1,r,22,11,0,1110,1367.5,257.5,1,2.638125187,262.1434337
5185,1,r,23,11,1,1065,1322.5,257.5,0,2.67229932,264.8158299
5185,1,r,24,12,0,1659.5,1397,262.5,0,2.689504031,267.5054392
5185,1,r,25,13,0,1513.5,1246,267.5,1,2.689409383,270.1951029
5185,1,r,26,13,1,1361,1628.5,267.5,1,2.586085706,272.7812833
5185,1,r,27,13,0,1490.75,1357,133.75,1,2.724018746,275.5054039
5185,1,r,28,13,1,1213,1346.75,133.75,1,2.638211473,278.1437085
5185,1,r,29,13,0,1325.875,1259,66.875,1,2.637512064,280.7813338
5185,1,r,30,13,1,1226.875,1160,66.875,0,2.740819396,283.5222996
5185,1,r,31,14,0,1340.875,1269,71.875,1,2.569220056,286.0916466
5185,1,r,32,14,1,1218.875,1147,71.875,1,2.982660728,289.0744061
5185,1,r,33,14,0,1162,1197.9375,35.9375,0,2.465477113,291.5399996
5185,1,r,34,15,0,1131,1171.9375,40.9375,1,2.465402231,294.0055056
5185,1,r,35,15,1,1275.9375,1235,40.9375,1,2.637847704,296.6434582
5185,1,r,36,15,0,1110,1130.46875,20.46875,0,2.56873237,299.2122924
5185,1,r,37,16,0,1192,1217.46875,25.46875,1,2.448161409,301.6605587
5185,1,r,38,16,1,1236.46875,1211,25.46875,1,2.741312404,304.4019749
5185,1,r,39,16,0,1049,1061.734375,12.734375,1,2.517055517,306.9191319
5185,1,r,40,16,1,1234,1246.734375,12.734375,1,3.034546644,309.9539393
5185,1,r,41,16,0,1270,1276.367188,6.3671875,0,2.534126048,312.4881688
4767,1,a,1,0,0,1000,1500,500,1,2.602506623,133.4453706
4767,1,a,2,0,1,1000,1500,500,1,2.689716515,136.1351962
4767,1,a,3,0,0,1000,1250,250,1,2.465488897,138.6008178
4767,1,a,4,0,1,1000,1250,250,1,2.344921737,140.9458486
4767,1,a,5,0,0,1000,875,125,0,2.482349225,143.4282986
4767,1,a,6,1,0,1000,1165,165,1,2.448204361,145.8766075
4767,1,a,7,1,1,1000,835,165,0,2.587164469,148.4638647
4767,1,a,8,2,0,1000,795,205,0,4.464146715,152.9281083
4767,1,a,9,3,0,1000,1245,245,1,2.810489697,155.7387181
4767,1,a,10,3,1,1000,755,245,1,2.534342333,158.273165
4767,1,a,11,3,0,1000,877.5,122.5,0,3.120593388,161.3938504
4767,1,a,12,4,0,1000,1162.5,162.5,1,2.603327668,163.9972624
4767,1,a,13,4,1,1000,837.5,162.5,1,2.293057867,166.290432
4767,1,a,14,4,0,1000,918.75,81.25,1,3.310183515,169.6007212
4767,1,a,15,4,1,1000,918.75,81.25,1,2.482750245,172.0835828
4767,1,a,16,4,0,1000,959.375,40.625,1,2.602957818,174.6866418
4767,1,a,17,4,1,1000,959.375,40.625,1,2.431558037,177.1182838
4767,1,a,18,4,0,1000,979.6875,20.3125,1,2.447524338,179.5658956
4767,1,a,19,4,1,1000,979.6875,20.3125,1,2.259011073,181.8250119
4767,1,a,20,4,0,1000,1010.15625,10.15625,0,2.638156357,184.4632694
4767,1,a,21,5,0,1000,964.84375,35.15625,1,2.861562929,187.3249316
4767,1,a,22,5,1,1000,964.84375,35.15625,1,2.499968261,189.8249948
4767,1,a,23,5,0,1000,1017.578125,17.578125,0,2.465358138,192.290448
4767,1,a,24,6,0,1000,957.421875,42.578125,,0,196.8763528
4767,1,a,25,6,0,1000,1042.578125,42.578125,1,4.310649915,201.1870939
4767,1,a,26,6,1,1000,957.421875,42.578125,1,2.758538402,203.9457274
4767,1,a,27,6,0,1000,978.7109375,21.2890625,1,2.861841933,206.8076974
4767,1,a,28,6,1,1000,1021.289063,21.2890625,0,2.965483765,209.7732891
4767,1,a,29,7,0,1000,1046.289063,46.2890625,1,2.913762819,212.6871454
4767,1,a,30,7,1,1000,1046.289063,46.2890625,0,3.637779284,216.325033
4767,1,a,31,8,0,1000,928.7109375,71.2890625,1,4.224316565,220.5494564
4767,1,a,32,8,1,1000,928.7109375,71.2890625,0,3.861656437,224.4112151
4767,1,a,33,9,0,1000,923.7109375,76.2890625,1,2.672292858,227.0836053
4767,1,a,34,9,1,1000,1076.289063,76.2890625,1,2.655416185,229.7391214
4767,1,a,35,9,0,1000,1038.144531,38.14453125,1,2.740974102,232.4801887
4767,1,a,36,9,1,1000,1038.144531,38.14453125,1,3.085846044,235.5661343
4767,1,a,37,9,0,1000,1019.072266,19.07226563,1,4.086369081,239.6525942
4767,1,a,38,9,1,1000,980.9277344,19.07226563,0,2.862540582,242.5152382
4767,1,a,39,10,0,1000,975.9277344,24.07226563,1,2.395856987,244.9111959
4767,1,a,40,10,1,1000,975.9277344,24.07226563,1,2.258570901,247.1698725
4767,1,a,41,10,0,1000,1012.036133,12.03613281,0,2.413722717,249.5836887
4767,1,a,42,11,0,1000,982.9638672,17.03613281,,0,254.1698896
4767,1,a,43,11,0,1000,982.9638672,17.03613281,,0,258.7559278
4767,1,a,44,11,0,1000,1017.036133,17.03613281,1,3.568708043,262.3247392
4767,1,a,45,11,1,1000,982.9638672,17.03613281,0,3.8450352,266.1698782
4767,1,a,46,12,0,1000,977.9638672,22.03613281,0,3.620546064,269.7905197
4767,1,a,47,13,0,1000,1027.036133,27.03613281,1,3.275774092,273.0663869
4767,1,a,48,13,1,1000,1027.036133,27.03613281,1,3.017140472,276.0836319
4767,1,a,49,13,0,1000,1013.518066,13.51806641,1,2.586972511,278.6706964
4767,1,a,50,13,1,1000,1013.518066,13.51806641,1,2.602500541,281.2733079
4767,1,a,51,13,0,1000,993.2409668,6.759033203,0,2.379221687,283.6526364
4767,1,a,52,14,0,1000,1011.759033,11.7590332,1,2.844782045,286.4975329
4767,1,a,53,14,1,1000,1011.759033,11.7590332,1,2.879106322,289.3767445
4767,1,a,54,14,0,1000,994.1204834,5.879516602,0,2.55163447,291.9284683
4767,1,a,55,15,0,1000,1010.879517,10.8795166,0,2.49993481,294.4285076
4767,1,a,56,16,0,1000,984.1204834,15.8795166,,0,299.0146952
4767,1,a,57,16,0,1000,1015.879517,15.8795166,0,2.810253646,301.8250549
4767,1,r,1,0,0,1672,1172,500,0,2.619239233,312.7215701
4767,1,r,2,1,0,1923,1383,540,0,2.327224778,315.0488944
4767,1,r,3,2,0,1806,1226,580,0,2.620871061,317.6698559
4767,1,r,4,3,0,1388,2008,620,1,2.862008042,320.5319556
4767,1,r,5,3,1,1680,1060,620,1,2.344725598,322.8767804
4767,1,r,6,3,0,1353,1663,310,1,2.448148485,325.3250372
4767,1,r,7,3,1,1319,1009,310,1,2.637796769,327.9629203
4767,1,r,8,3,0,1185,1030,155,1,2.551704031,330.5147269
4767,1,r,9,3,1,1221,1066,155,1,3.362050805,333.8768675
4767,1,r,10,3,0,1172,1249.5,77.5,1,3.603255447,337.4802232
4767,1,r,11,3,1,1203,1280.5,77.5,,0,342.0663363
4767,1,r,12,3,1,1281.5,1204,77.5,0,3.310314274,345.3767475
4767,1,r,13,4,0,1143.5,1026,117.5,1,2.534318386,347.9111526
4767,1,r,14,4,1,1063,1180.5,117.5,1,2.689369851,350.6006095
4767,1,r,15,4,0,1224,1282.75,58.75,1,4.034742023,354.635456
4767,1,r,16,4,1,1126,1184.75,58.75,0,2.896341823,357.5318929
4767,1,r,17,5,0,1302.75,1219,83.75,0,3.913705422,361.445704
4767,1,r,18,6,0,1258.75,1150,108.75,0,3.79306604,365.2388559
4767,1,r,19,7,0,1214.75,1081,133.75,1,2.637949195,367.8769085
4767,1,r,20,7,1,1333,1466.75,133.75,1,2.465276413,370.3422856
4767,1,r,21,7,0,1242,1308.875,66.875,1,2.465423517,372.8078198
4767,1,r,22,7,1,1222.875,1156,66.875,1,3.258510463,376.0664329
4767,1,r,23,7,0,1350.4375,1317,33.4375,1,2.965181575,379.0317026
4767,1,r,24,7,1,1040.4375,1007,33.4375,1,2.603440182,381.6352515
4767,1,r,25,7,0,1203.71875,1187,16.71875,1,3.051764659,384.6871241
4767,1,r,26,7,1,1255,1271.71875,16.71875,1,2.792624348,387.4798378
4767,1,r,27,7,0,1195.359375,1187,8.359375,0,2.862355466,390.3422872
4767,1,r,28,8,0,1276,1309.359375,33.359375,0,3.258481574,393.6008634
4767,1,r,29,9,0,1373,1411.359375,38.359375,1,2.465453926,396.0664116
4767,1,r,30,9,1,1085,1123.359375,38.359375,0,2.448308513,398.5148227
4767,1,r,31,10,0,1145,1188.359375,43.359375,1,2.413584355,400.9285131
4767,1,r,32,10,1,1299,1342.359375,43.359375,1,2.379180254,403.3077877
4767,1,r,33,10,0,1187.679688,1166,21.6796875,0,2.379360808,405.6872541
4767,1,r,34,11,0,1069.679688,1043,26.6796875,1,2.292847664,407.9801904
4767,1,r,35,11,1,1254,1280.679688,26.6796875,1,2.603304862,410.5835842
4767,1,r,36,11,0,1295,1308.339844,13.33984375,1,2.482739222,413.0664154
4767,1,r,37,11,1,1179,1192.339844,13.33984375,0,2.723859478,415.7903573
4767,1,r,38,12,0,1026,1044.339844,18.33984375,0,2.396727828,418.187203
4767,1,r,39,13,0,1088,1111.339844,23.33984375,1,3.430775763,421.6180738
4767,1,r,40,13,1,1210,1233.339844,23.33984375,1,4.172421146,425.79059
4767,1,r,41,13,0,1320,1331.669922,11.66992188,1,2.361952736,428.1526366
4767,1,r,42,13,1,1186,1197.669922,11.66992188,1,2.466079594,430.6188112
4767,1,r,43,13,0,1158.834961,1153,5.834960938,0,2.533694619,433.1526252
4767,1,r,44,14,0,1364.834961,1354,10.83496094,0,2.327383665,435.4801012
4767,1,r,45,15,0,1270,1285.834961,15.83496094,0,2.517316655,437.9975201
4767,1,r,46,16,0,1049.834961,1029,20.83496094,0,2.844669151,440.8422877
5174,1,a,1,0,0,1000,500,500,1,3.642820679,114.7319489
5174,1,a,2,0,1,1000,500,500,1,2.565851228,117.297883
5174,1,a,3,0,0,1000,750,250,0,2.682474833,119.9804426
5174,1,a,4,1,0,1000,1290,290,0,3.415505949,123.3960337
5174,1,a,5,2,0,1000,1330,330,1,2.115974747,125.5120898
5174,1,a,6,2,1,1000,670,330,1,2.449200253,127.9613798
5174,1,a,7,2,0,1000,835,165,1,3.182449176,131.1439198
5174,1,a,8,2,1,1000,1165,165,1,3.165505093,134.309502
5174,1,a,9,2,0,1000,917.5,82.5,0,2.965926719,137.2755192
5174,1,a,10,3,0,1000,1122.5,122.5,0,2.982145918,140.2577541
5174,1,a,11,4,0,1000,837.5,162.5,0,2.115912027,142.3737425
5174,1,a,12,5,0,1000,1187.5,187.5,0,2.282591681,144.6564178
5174,1,a,13,6,0,1000,1212.5,212.5,1,2.482515582,147.1390163
5174,1,a,14,6,1,1000,787.5,212.5,1,2.36587297,149.5049786
5174,1,a,15,6,0,1000,1106.25,106.25,1,3.03237492,152.5374462
5174,1,a,16,6,1,1000,893.75,106.25,1,2.682437202,155.2199762
5174,1,a,17,6,0,1000,946.875,53.125,1,2.549128754,157.7691958
5174,1,a,18,6,1,1000,946.875,53.125,0,2.215943919,159.9852306
5174,1,a,19,7,0,1000,921.875,78.125,1,3.148936947,163.1342481
5174,1,a,20,7,1,1000,1078.125,78.125,0,2.832416048,165.9667386
5174,1,a,21,8,0,1000,896.875,103.125,0,2.282562412,168.2493824
5174,1,a,22,9,0,1000,891.875,108.125,1,2.115981589,170.3654446
5174,1,a,23,9,1,1000,891.875,108.125,0,2.099322974,172.4648569
5174,1,a,24,10,0,1000,886.875,113.125,1,2.182574614,174.6475159
5174,1,a,25,10,1,1000,1113.125,113.125,1,3.065704693,177.7133126
5174,1,a,26,10,0,1000,943.4375,56.5625,1,2.699082132,180.4124874
5174,1,a,27,10,1,1000,943.4375,56.5625,0,2.115917729,182.528485
5174,1,a,28,11,0,1000,938.4375,61.5625,1,2.265931926,184.7944998
5174,1,a,29,11,1,1000,938.4375,61.5625,1,2.882399874,187.676978
5174,1,a,30,11,0,1000,969.21875,30.78125,0,2.549172847,190.2262398
5174,1,a,31,12,0,1000,1035.78125,35.78125,0,2.365814432,192.5921295
5174,1,a,32,13,0,1000,1040.78125,40.78125,1,2.282611067,194.874839
5174,1,a,33,13,1,1000,1040.78125,40.78125,1,2.199254895,197.0741802
5174,1,a,34,13,0,1000,979.609375,20.390625,1,2.415862878,199.4901175
5174,1,a,35,13,1,1000,1020.390625,20.390625,0,2.632508113,202.1227127
5174,1,a,36,14,0,1000,1025.390625,25.390625,1,2.11591963,204.2387102
5174,1,a,37,14,1,1000,1025.390625,25.390625,0,2.415906972,206.654697
5174,1,a,38,15,0,1000,969.609375,30.390625,0,2.465834921,209.1206133
5174,1,a,39,16,0,1000,1035.390625,35.390625,0,2.449184669,211.5698751
5174,1,r,1,0,0,1592,1092,500,0,3.000495672,229.0980082
5174,1,r,2,1,0,1790,1250,540,0,2.032674832,231.1307693
5174,1,r,3,2,0,1200,1780,580,0,1.882667096,233.0135208
5174,1,r,4,3,0,1056,1676,620,1,3.165608865,236.179214
5174,1,r,5,3,1,1386,2006,620,0,2.182629351,238.361916
5174,1,r,6,4,0,1984,1324,660,0,1.999364065,240.3613709
5174,1,r,7,5,0,1054,1739,685,0,2.332544718,242.6940045
5174,1,r,8,6,0,1339,2049,710,1,3.28222867,245.9763206
5174,1,r,9,6,1,2047,1337,710,1,1.71607715,247.6924742
5174,1,r,10,6,0,1375,1730,355,0,2.24926571,249.941814
5174,1,r,11,7,0,1303,1683,380,1,2.116037466,252.057934
5174,1,r,12,7,1,1387,1007,380,0,2.432456113,254.4904737
5174,1,r,13,8,0,1255,1660,405,0,2.432530235,256.9230845
5174,1,r,14,9,0,1101,1511,410,1,1.965985637,258.8891435
5174,1,r,15,9,1,1015,1425,410,0,1.616153972,260.5053864
5174,1,r,16,10,0,1287,1702,415,1,1.73272246,262.2381979
5174,1,r,17,10,1,1199,1614,415,0,1.599420854,263.8376982
5174,1,r,18,11,0,1349,1769,420,0,1.999327574,265.837104
5174,1,r,19,12,0,1605,1180,425,0,3.032334247,268.869517
5174,1,r,20,13,0,1063,1493,430,0,3.182336281,272.051938
5174,1,r,21,14,0,1672,1237,435,0,2.299233951,274.3512514
5174,1,r,22,15,0,1665,1225,440,1,2.232605575,276.5839482
5174,1,r,23,15,1,1088,1528,440,1,2.315883062,278.8999126
5174,1,r,24,15,0,1375,1155,220,0,2.165833134,281.065943
5174,1,r,25,16,0,1189,1414,225,0,2.215974709,283.2820112
4738,1,a,1,0,0,1000,500,500,1,3.162902054,77.18864014
4738,1,a,2,0,1,1000,1500,500,1,2.515816846,79.70453909
4738,1,a,3,0,0,1000,750,250,1,2.632518376,82.33714413
4738,1,a,4,0,1,1000,1250,250,1,2.38251486,84.71973805
4738,1,a,5,0,0,1000,1125,125,1,3.132462309,87.85229083
4738,1,a,6,0,1,1000,875,125,1,2.599387024,90.4517535
4738,1,a,7,0,0,1000,937.5,62.5,1,2.665642125,93.11749369
4738,1,a,8,0,1,1000,937.5,62.5,1,2.965445871,96.08302395
4738,1,a,9,0,0,1000,968.75,31.25,1,2.815739948,98.8988441
4738,1,a,10,0,1,1000,968.75,31.25,0,2.415881884,101.314813
4738,1,a,11,1,0,1000,1071.25,71.25,1,2.549138637,103.8640311
4738,1,a,12,1,1,1000,928.75,71.25,1,2.466300944,106.3304191
4738,1,a,13,1,0,1000,964.375,35.625,1,3.148607005,109.4791668
4738,1,a,14,1,1,1000,964.375,35.625,0,2.365792005,111.8450591
4738,1,a,15,2,0,1000,924.375,75.625,0,2.232568323,114.0777118
4738,1,a,16,3,0,1000,1115.625,115.625,0,2.265907599,116.3437099
4738,1,a,17,4,0,1000,1155.625,155.625,1,2.732471964,119.0762689
4738,1,a,18,4,1,1000,844.375,155.625,1,2.865649652,121.941998
4738,1,a,19,4,0,1000,1077.8125,77.8125,1,2.282590541,124.2246756
4738,1,a,20,4,1,1000,1077.8125,77.8125,1,2.849073903,127.073832
4738,1,a,21,4,0,1000,961.09375,38.90625,1,2.649108569,129.7230272
4738,1,a,22,4,1,1000,1038.90625,38.90625,1,2.582507561,132.3056226
4738,1,a,23,4,0,1000,1019.453125,19.453125,0,2.532523735,134.8382459
4738,1,a,24,5,0,1000,1044.453125,44.453125,0,2.49915329,137.337506
4738,1,a,25,6,0,1000,1069.453125,69.453125,1,2.532452654,139.8700628
4738,1,a,26,6,1,1000,930.546875,69.453125,0,2.76577931,142.6359409
4738,1,a,27,7,0,1000,905.546875,94.453125,,0,147.2183546
4738,1,a,28,7,0,1000,905.546875,94.453125,1,2.482104296,149.7005494
4738,1,a,29,7,1,1000,1094.453125,94.453125,1,2.465746353,152.1663801
4738,1,a,30,7,0,1000,1047.226563,47.2265625,1,2.682448605,154.8489207
4738,1,a,31,7,1,1000,952.7734375,47.2265625,0,2.84958554,157.69861
4738,1,a,32,8,0,1000,927.7734375,72.2265625,1,2.365398585,160.0640892
4738,1,a,33,8,1,1000,1072.226563,72.2265625,0,2.632427148,162.6966068
4738,1,a,34,9,0,1000,1077.226563,77.2265625,1,2.28255405,164.9792433
4738,1,a,35,9,1,1000,922.7734375,77.2265625,1,2.432551142,167.4118831
4738,1,a,36,9,0,1000,1038.613281,38.61328125,1,2.399157509,169.8111242
4738,1,a,37,9,1,1000,1038.613281,38.61328125,1,2.483235903,172.2944487
4738,1,a,38,9,0,1000,980.6933594,19.30664063,0,2.481808565,174.7763534
4738,1,a,39,10,0,1000,975.6933594,24.30664063,1,1.799344755,176.5758065
4738,1,a,40,10,1,1000,1024.306641,24.30664063,1,2.199284164,178.775202
4738,1,a,41,10,0,1000,987.8466797,12.15332031,0,2.699033097,181.4743248
4738,1,a,42,11,0,1000,1017.15332,17.15332031,0,1.599454685,183.0738685
4738,1,a,43,12,0,1000,977.8466797,22.15332031,0,3.815490212,186.8894507
4738,1,a,44,13,0,1000,972.8466797,27.15332031,1,2.515813045,189.4053523
4738,1,a,45,13,1,1000,1027.15332,27.15332031,1,2.782380907,192.1878286
4738,1,a,46,13,0,1000,1013.57666,13.57666016,1,2.632515715,194.8204329
4738,1,a,47,13,1,1000,1013.57666,13.57666016,1,2.599116761,197.4196481
4738,1,a,48,13,0,1000,1006.78833,6.788330078,0,2.965659497,200.3853961
4738,1,a,49,14,0,1000,1011.78833,11.78833008,1,2.066001184,202.4514802
4738,1,a,50,14,1,1000,1011.78833,11.78833008,1,2.315925635,204.7674997
4738,1,a,51,14,0,1000,994.105835,5.894165039,0,2.332855653,207.1004607
4738,1,a,52,15,0,1000,989.105835,10.89416504,1,2.382140065,209.4826798
4738,1,a,53,15,1,1000,989.105835,10.89416504,1,2.365914783,211.8486866
4738,1,a,54,15,0,1000,994.5529175,5.44708252,0,2.932354812,214.7811265
4738,1,a,55,16,0,1000,1010.447083,10.44708252,0,2.599485094,217.3807006
4738,1,r,1,0,0,1260,1760,500,1,2.99964079,254.702621
4738,1,r,2,0,1,1882,1382,500,1,2.315768647,257.018571
4738,1,r,3,0,0,1510,1260,250,1,2.932815513,259.9514906
4738,1,r,4,0,1,1344,1594,250,1,2.39880172,262.3503855
4738,1,r,5,0,0,1179,1054,125,1,2.882355401,265.2328162
4738,1,r,6,0,1,1038,1163,125,1,2.565807514,267.7987035
4738,1,r,7,0,0,1152,1214.5,62.5,1,2.382603807,270.1813955
4738,1,r,8,0,1,1189.5,1127,62.5,1,2.532467858,272.7139519
4738,1,r,9,0,0,1162.25,1131,31.25,1,2.549122292,275.2631578
4738,1,r,10,0,1,1398,1429.25,31.25,0,2.682499921,277.9457505
4738,1,r,11,1,0,1052,1123.25,71.25,1,2.132561139,280.0783983
4738,1,r,12,1,1,1177,1248.25,71.25,0,2.665790371,282.7442803
4738,1,r,13,2,0,1180,1291.25,111.25,1,2.166058163,284.9104342
4738,1,r,14,2,1,1448.25,1337,111.25,0,2.898952056,287.8094954
4738,1,r,15,3,0,1207.25,1056,151.25,1,2.349159619,290.1587402
4738,1,r,16,3,1,1109,1260.25,151.25,1,2.849116096,293.0079433
4738,1,r,17,3,0,1097,1172.625,75.625,1,2.299222167,295.3072449
4738,1,r,18,3,1,1228,1303.625,75.625,0,2.332987174,297.6403172
4738,1,r,19,4,0,1446.625,1331,115.625,0,1.93225104,299.5726557
4738,1,r,20,5,0,1361.625,1221,140.625,0,2.632423727,302.2051634
4738,1,r,21,6,0,1153,1318.625,165.625,0,3.049009587,305.254262
4738,1,r,22,7,0,1304.625,1114,190.625,0,2.615863943,307.8702164
4738,1,r,23,8,0,1371.625,1156,215.625,0,2.249187025,310.1194961
4738,1,r,24,9,0,1260,1480.625,220.625,1,3.215658071,313.3352413
4738,1,r,25,9,1,1133,1353.625,220.625,1,2.782417398,316.1177472
4738,1,r,26,9,0,1012,1122.3125,110.3125,0,2.899067612,319.0169061
4738,1,r,27,10,0,1112,1227.3125,115.3125,1,2.68243188,321.6994258
4738,1,r,28,10,1,1278,1393.3125,115.3125,0,4.515183952,326.2146926
4738,1,r,29,11,0,1154,1274.3125,120.3125,0,3.099097565,329.3138958
4738,1,r,30,12,0,1212.3125,1087,125.3125,0,1.682653488,330.9966432
4738,1,r,31,13,0,1138.3125,1008,130.3125,1,2.965760608,333.9625095
4738,1,r,32,13,1,1173,1303.3125,130.3125,1,2.81577682,336.7783695
4738,1,r,33,13,0,1198.15625,1133,65.15625,0,2.765628403,339.5440694
4738,1,r,34,14,0,1152,1222.15625,70.15625,1,2.982363345,342.526513
4738,1,r,35,14,1,1254.15625,1184,70.15625,1,2.449208236,344.9757991
4738,1,r,36,14,0,1042,1077.078125,35.078125,0,3.032386703,348.0082729
4738,1,r,37,15,0,1084.078125,1044,40.078125,0,3.549091882,351.5574457
4738,1,r,38,16,0,1268.078125,1223,45.078125,0,3.86518819,355.4227156
5412,1,a,1,0,0,1000,500,500,1,2.588353332,88.26574402
5412,1,a,2,0,1,1000,500,500,1,2.582540185,90.84837961
5412,1,a,3,0,0,1000,1250,250,1,2.699135345,93.54759288
5412,1,a,4,0,1,1000,1250,250,1,2.349221765,95.89689409
5412,1,a,5,0,0,1000,875,125,1,2.599146787,98.49611918
5412,1,a,6,0,1,1000,875,125,1,3.382304968,101.8785173
5412,1,a,7,0,0,1000,1062.5,62.5,1,2.63245464,104.5110658
5412,1,a,8,0,1,1000,937.5,62.5,1,2.582476705,107.0936182
5412,1,a,9,0,0,1000,968.75,31.25,1,2.865780282,109.9594958
5412,1,a,10,0,1,1000,968.75,31.25,1,2.499151386,112.4587285
5412,1,a,11,0,0,1000,984.375,15.625,0,3.049011674,115.5078181
5412,1,a,12,1,0,1000,1055.625,55.625,0,2.399173091,117.907071
5412,1,a,13,2,0,1000,1095.625,95.625,1,2.399276863,120.3064463
5412,1,a,14,2,1,1000,1095.625,95.625,1,2.949019694,123.2555447
5412,1,a,15,2,0,1000,952.1875,47.8125,1,2.932411572,126.1880387
5412,1,a,16,2,1,1000,1047.8125,47.8125,1,2.51582945,128.7039473
5412,1,a,17,2,0,1000,976.09375,23.90625,1,2.81577916,131.5198059
5412,1,a,18,2,1,1000,976.09375,23.90625,1,2.582518518,134.1024206
5412,1,a,19,2,0,1000,1011.953125,11.953125,0,2.915689795,137.0181883
5412,1,a,20,3,0,1000,1051.953125,51.953125,1,2.998979383,140.0172425
5412,1,a,21,3,1,1000,948.046875,51.953125,1,2.915782163,142.9331171
5412,1,a,22,3,0,1000,974.0234375,25.9765625,1,3.165639904,146.0988284
5412,1,a,23,3,1,1000,1025.976563,25.9765625,0,3.182349518,149.2812673
5412,1,a,24,4,0,1000,1065.976563,65.9765625,,0,153.8631639
5412,1,a,25,4,0,1000,1065.976563,65.9765625,1,2.599207226,156.4624612
5412,1,a,26,4,1,1000,1065.976563,65.9765625,1,2.582487729,159.0450246
5412,1,a,27,4,0,1000,967.0117188,32.98828125,1,2.465913855,161.5110198
5412,1,a,28,4,1,1000,1032.988281,32.98828125,1,4.132025676,165.6431356
5412,1,a,29,4,0,1000,983.5058594,16.49414063,1,2.632452359,168.2756613
5412,1,a,30,4,1,1000,1016.494141,16.49414063,1,2.699144848,170.9748807
5412,1,a,31,4,0,1000,1008.24707,8.247070313,1,3.082377685,174.0573553
5412,1,a,32,4,1,1000,1008.24707,8.247070313,0,3.998694294,178.0561218
5412,1,a,33,5,0,1000,1033.24707,33.24707031,1,2.582505975,180.6387026
5412,1,a,34,5,1,1000,966.7529297,33.24707031,1,2.665836235,183.3046328
5412,1,a,35,5,0,1000,1016.623535,16.62353516,0,2.765720261,186.0704302
5412,1,a,36,6,0,1000,958.3764648,41.62353516,1,3.282398135,189.3529074
5412,1,a,37,6,1,1000,958.3764648,41.62353516,1,3.348846589,192.701827
5412,1,a,38,6,0,1000,979.1882324,20.81176758,1,2.432547084,195.1344577
5412,1,a,39,6,1,1000,979.1882324,20.81176758,1,2.565818408,197.7003468
5412,1,a,40,6,0,1000,989.5941162,10.40588379,1,2.532547807,200.2329672
5412,1,a,41,6,1,1000,1010.405884,10.40588379,1,2.532508654,202.7655511
5412,1,a,42,6,0,1000,994.7970581,5.202941895,1,2.582495331,205.3481122
5412,1,a,43,6,1,1000,1005.202942,5.202941895,1,2.515913076,207.864123
5412,1,a,44,6,0,1000,997.3985291,2.601470947,0,2.399165489,210.2633721
5412,1,a,45,7,0,1000,972.3985291,27.60147095,,0,214.8452961
5412,1,a,46,7,0,1000,972.3985291,27.60147095,0,3.515610882,218.3609811
5412,1,a,47,8,0,1000,947.3985291,52.60147095,1,2.615832073,220.9769006
5412,1,a,48,8,1,1000,1052.601471,52.60147095,1,2.53249307,223.5094594
5412,1,a,49,8,0,1000,973.6992645,26.30073547,0,2.682472106,226.192011
5412,1,a,50,9,0,1000,1031.300735,31.30073547,1,3.982114301,230.1742059
5412,1,a,51,9,1,1000,968.6992645,31.30073547,1,2.749120882,232.9234111
5412,1,a,52,9,0,1000,1015.650368,15.65036774,1,2.582449337,235.5059289
5412,1,a,53,9,1,1000,984.3496323,15.65036774,1,2.582576296,238.0885968
5412,1,a,54,9,0,1000,992.1748161,7.825183868,0,2.399141541,240.4878246
5412,1,a,55,10,0,1000,1012.825184,12.82518387,1,4.365344476,244.8532683
5412,1,a,56,10,1,1000,987.1748161,12.82518387,0,2.882508141,247.7358681
5412,1,a,57,11,0,1000,1017.825184,17.82518387,1,2.698909935,250.4349817
5412,1,a,58,11,1,1000,1017.825184,17.82518387,1,2.649075686,253.0841289
5412,1,a,59,11,0,1000,1008.912592,8.912591934,0,2.93253321,256.0167541
5412,1,a,60,12,0,1000,986.0874081,13.91259193,1,3.515402577,259.5322323
5412,1,a,61,12,1,1000,986.0874081,13.91259193,1,2.915744532,262.4480616
5412,1,a,62,12,0,1000,1006.956296,6.956295967,1,2.782451922,265.2305861
5412,1,a,63,12,1,1000,993.043704,6.956295967,1,2.715795544,267.9464721
5412,1,a,64,12,0,1000,996.521852,3.478147984,0,2.782402126,270.728948
5412,1,a,65,13,0,1000,991.521852,8.478147984,1,2.665835475,273.3948557
5412,1,a,66,13,1,1000,1008.478148,8.478147984,1,2.799131886,276.1940606
5412,1,a,67,13,0,1000,995.760926,4.239073992,0,2.882383843,279.0765246
5412,1,a,68,14,0,1000,990.760926,9.239073992,1,2.782432156,281.8590358
5412,1,a,69,14,1,1000,1009.239074,9.239073992,1,2.782438618,284.6415482
5412,1,a,70,14,0,1000,1004.619537,4.619536996,0,2.649162733,287.2907824
5412,1,r,1,0,0,1267,1767,500,0,2.491966013,349.9057866
5412,1,r,2,1,0,1696,1156,540,0,2.31590593,352.2217701
5412,1,r,3,2,0,1111,1691,580,1,3.715549607,355.9374135
5412,1,r,4,2,1,1758,1178,580,0,2.665764773,358.6032536
5412,1,r,5,3,0,2003,1383,620,1,2.53249535,361.1358257
5412,1,r,6,3,1,1047,1667,620,1,3.765512337,364.9014262
5412,1,r,7,3,0,1281,1591,310,0,2.749068045,367.6511561
5412,1,r,8,4,0,1366,1716,350,1,2.715232969,370.3664753
5412,1,r,9,4,1,1519,1169,350,1,3.049021177,373.415587
5412,1,r,10,4,0,1312,1487,175,1,3.23225599,376.6479163
5412,1,r,11,4,1,1256,1431,175,1,2.499205363,379.1471916
5412,1,r,12,4,0,1483.5,1396,87.5,1,2.565868963,381.7131499
5412,1,r,13,4,1,1156,1243.5,87.5,1,2.599131962,384.3123609
5412,1,r,14,4,0,1163,1206.75,43.75,1,2.699130404,387.0115655
5412,1,r,15,4,1,1129,1172.75,43.75,1,2.649498757,389.6611623
5412,1,r,16,4,0,1263.875,1242,21.875,0,2.43217799,392.0934148
5412,1,r,17,5,0,1083.875,1037,46.875,1,2.599141465,394.6926399
5412,1,r,18,5,1,1159.875,1113,46.875,1,2.299237369,396.9919495
5412,1,r,19,5,0,1133,1156.4375,23.4375,0,2.565876946,399.5579192
5412,1,r,20,6,0,1322.4375,1274,48.4375,0,2.515812345,402.0738155
5412,1,r,21,7,0,1428.4375,1355,73.4375,1,3.432251732,405.5061429
5412,1,r,22,7,1,1134,1207.4375,73.4375,0,2.382634911,407.8888694
5412,1,r,23,8,0,1204.4375,1106,98.4375,1,2.865661305,410.7546071
5412,1,r,24,8,1,1213.4375,1115,98.4375,0,2.799095395,413.5537755
5412,1,r,25,9,0,1381.4375,1278,103.4375,1,3.382276459,416.9361249
5412,1,r,26,9,1,1408.4375,1305,103.4375,1,2.782843063,419.7190794
5412,1,r,27,9,0,1336.71875,1285,51.71875,1,2.898642256,422.6178007
5412,1,r,28,9,1,1394,1445.71875,51.71875,1,2.665813808,425.2836905
5412,1,r,29,9,0,1332,1357.859375,25.859375,0,2.632473265,427.9162299
5412,1,r,30,10,0,1190,1220.859375,30.859375,,0,432.4981543
5412,1,r,31,10,0,1211,1241.859375,30.859375,0,2.649206446,435.1474376
5412,1,r,32,11,0,1158,1193.859375,35.859375,1,2.649168435,437.7966816
5412,1,r,33,11,1,1272.859375,1237,35.859375,0,2.732467145,440.529226
5412,1,r,34,12,0,1344.859375,1304,40.859375,1,2.632478587,443.1617768
5412,1,r,35,12,1,1272.859375,1232,40.859375,1,3.582194278,446.7440619
5412,1,r,36,12,0,1411.429688,1391,20.4296875,1,2.649103434,449.3932474
5412,1,r,37,12,1,1304.429688,1284,20.4296875,0,2.715862824,452.1092057
5412,1,r,38,13,0,1066,1091.429688,25.4296875,0,2.715777678,454.8250848
5412,1,r,39,14,0,1257.429688,1227,30.4296875,0,2.749060063,457.5742247
5412,1,r,40,15,0,1196,1231.429688,35.4296875,0,3.915441578,461.4897461
5412,1,r,41,16,0,1117,1157.429688,40.4296875,1,3.59893316,465.0887789
5412,1,r,42,16,1,1145,1185.429688,40.4296875,1,2.449136961,467.5379953
5412,1,r,43,16,0,1371,1391.214844,20.21484375,1,3.232306926,470.7703839
5412,1,r,44,16,1,1304.214844,1284,20.21484375,1,2.932367098,473.7029141
5412,1,r,45,16,0,1013,1023.107422,10.10742188,0,2.732371736,476.4353778
5082,1,a,1,0,0,1000,1500,500,1,2.553288911,74.73123867
5082,1,a,2,0,1,1000,1500,500,1,2.327393084,77.05873324
5082,1,a,3,0,0,1000,1250,250,1,3.344834481,80.40366579
5082,1,a,4,0,1,1000,1250,250,1,3.293524428,83.69742095
5082,1,a,5,0,0,1000,875,125,,0,88.28326181
5082,1,a,6,0,0,1000,1125,125,1,4.172223384,92.45566765
5082,1,a,7,0,1,1000,1125,125,1,3.56851502,96.02430316
5082,1,a,8,0,0,1000,1062.5,62.5,1,4.22446927,100.2489507
5082,1,a,9,0,1,1000,1062.5,62.5,1,4.361968747,104.6111525
5082,1,a,10,0,0,1000,968.75,31.25,0,3.741080504,108.3524713
5082,1,a,11,1,0,1000,1071.25,71.25,0,3.620660937,111.9734143
5082,1,a,12,2,0,1000,888.75,111.25,1,3.465820793,115.4394943
5082,1,a,13,2,1,1000,1111.25,111.25,1,3.050946287,118.4906702
5082,1,a,14,2,0,1000,1055.625,55.625,0,2.879237193,121.3701598
5082,1,a,15,3,0,1000,904.375,95.625,0,2.499337847,123.8696987
5082,1,a,16,4,0,1000,1135.625,135.625,1,3.758642015,127.6285346
5082,1,a,17,4,1,1000,864.375,135.625,1,2.844022183,130.4727133
5082,1,a,18,4,0,1000,1067.8125,67.8125,1,2.775991805,133.2488313
5082,1,a,19,4,1,1000,1067.8125,67.8125,1,3.793570421,137.0426336
5082,1,a,20,4,0,1000,966.09375,33.90625,1,2.705937335,139.7487169
5082,1,a,21,4,1,1000,966.09375,33.90625,1,2.862338215,142.6112205
5082,1,a,22,4,0,1000,983.046875,16.953125,0,3.206960974,145.8184479
5082,1,a,23,5,0,1000,1041.953125,41.953125,0,3.534181488,149.353027
5082,1,a,24,6,0,1000,1066.953125,66.953125,1,2.534964897,151.8882542
5082,1,a,25,6,1,1000,1066.953125,66.953125,1,3.360996423,155.2495281
5082,1,a,26,6,0,1000,1033.476563,33.4765625,1,2.844159023,158.0939121
5082,1,a,27,6,1,1000,1033.476563,33.4765625,1,3.223918869,161.3180564
5082,1,a,28,6,0,1000,1016.738281,16.73828125,0,3.206457327,164.5246673
5082,1,a,29,7,0,1000,1041.738281,41.73828125,1,2.517136927,167.0419236
5082,1,a,30,7,1,1000,1041.738281,41.73828125,1,2.655435398,169.6975601
5082,1,a,31,7,0,1000,979.1308594,20.86914063,0,3.240704574,172.9383992
5082,1,a,32,8,0,1000,1045.869141,45.86914063,1,2.948134985,175.8866269
5082,1,a,33,8,1,1000,954.1308594,45.86914063,1,2.810264139,178.6970078
5082,1,a,34,8,0,1000,1022.93457,22.93457031,1,2.758542806,181.4556741
5082,1,a,35,8,1,1000,1022.93457,22.93457031,0,2.758485029,184.2142838
5082,1,a,36,9,0,1000,1027.93457,27.93457031,1,2.741816399,186.956348
5082,1,a,37,9,1,1000,972.0654297,27.93457031,1,2.896005793,189.8525849
5082,1,a,38,9,0,1000,986.0327148,13.96728516,1,2.931026946,192.783851
5082,1,a,39,9,1,1000,986.0327148,13.96728516,1,3.034384087,195.8185171
5082,1,a,40,9,0,1000,993.0163574,6.983642578,0,2.499743425,198.3185612
5082,1,a,41,10,0,1000,988.0163574,11.98364258,1,2.482548341,200.8013996
5082,1,a,42,10,1,1000,988.0163574,11.98364258,0,2.947927444,203.7496018
5082,1,a,43,11,0,1000,983.0163574,16.98364258,1,2.637641259,206.3874833
5082,1,a,44,11,1,1000,1016.983643,16.98364258,1,2.396879288,208.7846747
5082,1,a,45,11,0,1000,1008.491821,8.491821289,1,3.343926395,212.1288789
5082,1,a,46,11,1,1000,991.5081787,8.491821289,0,4.362051231,216.4912088
5082,1,a,47,12,0,1000,1013.491821,13.49182129,0,2.551473881,219.0430392
5082,1,a,48,13,0,1000,981.5081787,18.49182129,0,3.309846017,222.3531981
5082,1,a,49,14,0,1000,1023.491821,23.49182129,0,2.77542772,225.1288793
5082,1,a,50,15,0,1000,1028.491821,28.49182129,1,2.516814593,227.6458927
5082,1,a,51,15,1,1000,971.5081787,28.49182129,1,3.431453051,231.0776476
5082,1,a,52,15,0,1000,1014.245911,14.24591064,1,2.464780429,233.5426633
5082,1,a,53,15,1,1000,985.7540894,14.24591064,1,2.75944557,236.3023305
5082,1,a,54,15,0,1000,992.8770447,7.122955322,0,2.810424926,239.1130032
5082,1,a,55,16,0,1000,1012.122955,12.12295532,0,2.412821907,241.5260752
5082,1,r,1,0,0,1398,1898,500,0,2.809154215,249.3015782
5082,1,r,2,1,0,1840,1300,540,1,2.878443141,252.180893
5082,1,r,3,1,1,1191,1731,540,1,2.568589142,254.7497486
5082,1,r,4,1,0,1352,1082,270,1,2.499750647,257.2497729
5082,1,r,5,1,1,1024,1294,270,1,2.516504803,259.7664666
5082,1,r,6,1,0,1425,1290,135,1,2.327896351,262.0946104
5082,1,r,7,1,1,1493,1358,135,0,2.706721124,264.8016193
5082,1,r,8,2,0,1319,1494,175,0,2.827025897,267.6289029
5082,1,r,9,3,0,1198,1413,215,1,2.482843687,270.1120328
5082,1,r,10,3,1,1000,1215,215,1,4.051382274,274.1636747
5082,1,r,11,3,0,1272.5,1165,107.5,1,2.603141998,276.7671113
5082,1,r,12,3,1,1064,1171.5,107.5,1,2.965713221,279.733124
5082,1,r,13,3,0,1092.75,1039,53.75,1,2.984283548,282.7177101
5082,1,r,14,3,1,1221,1274.75,53.75,1,2.601342172,285.3192659
5082,1,r,15,3,0,1185.875,1159,26.875,1,2.793214637,288.1127075
5082,1,r,16,3,1,1137.875,1111,26.875,1,2.948170335,291.0611401
5082,1,r,17,3,0,1103.4375,1090,13.4375,0,2.499175159,293.5606844
5082,1,r,18,4,0,1321.4375,1268,53.4375,0,2.431240188,295.9921971
5082,1,r,19,5,0,1125,1203.4375,78.4375,0,2.447920222,298.4403963
5082,1,r,20,6,0,1380,1483.4375,103.4375,1,2.844301565,301.2850358
5082,1,r,21,6,1,1343,1446.4375,103.4375,0,2.585616217,303.8708424
5082,1,r,22,7,0,1092,1220.4375,128.4375,1,2.379743881,306.250952
5082,1,r,23,7,1,1401.4375,1273,128.4375,1,2.585520429,308.8367054
5082,1,r,24,7,0,1071.21875,1007,64.21875,1,2.741219624,311.5781474
5082,1,r,25,7,1,1410.21875,1346,64.21875,0,2.482084605,314.0604825
5082,1,r,26,8,0,1256,1345.21875,89.21875,1,4.103714825,318.1644421
5082,1,r,27,8,1,1339.21875,1250,89.21875,1,2.792829585,320.957531
5082,1,r,28,8,0,1407.609375,1363,44.609375,0,2.810067622,323.7678202
5082,1,r,29,9,0,1123.609375,1074,49.609375,1,2.241393335,326.0095108
5082,1,r,30,9,1,1043,1092.609375,49.609375,0,2.465214136,328.4750172
5082,1,r,31,10,0,1100.609375,1046,54.609375,0,2.447936947,330.9232335
5082,1,r,32,11,0,1010,1069.609375,59.609375,0,2.120279306,333.0437713
5082,1,r,33,12,0,1128,1192.609375,64.609375,1,2.206860245,335.2508961
5082,1,r,34,12,1,1366,1430.609375,64.609375,1,2.792623565,338.0437823
5082,1,r,35,12,0,1197,1229.304688,32.3046875,1,2.395738195,340.4397486
5082,1,r,36,12,1,1052,1084.304688,32.3046875,0,2.586060187,343.0259247
5082,1,r,37,13,0,1051.304688,1014,37.3046875,0,3.017170377,346.0432019
5082,1,r,38,14,0,1429.304688,1387,42.3046875,1,2.397452116,348.4407814
5082,1,r,39,14,1,1377,1419.304688,42.3046875,0,2.240249961,350.6811837
5082,1,r,40,15,0,1237.304688,1190,47.3046875,0,2.345147692,353.0264515
5082,1,r,41,16,0,1204.304688,1152,52.3046875,1,2.362140177,355.3887977
5082,1,r,42,16,1,1235,1287.304688,52.3046875,1,2.465013817,357.8540735
5082,1,r,43,16,0,1214.152344,1188,26.15234375,1,2.68942645,360.5437295
5082,1,r,44,16,1,1301,1327.152344,26.15234375,1,2.585844284,363.1298087
5082,1,r,45,16,0,1371,1384.076172,13.07617188,0,2.413755839,365.5438055
5153,1,a,1,0,0,1000,1500,500,1,3.304495923,130.3631238
5153,1,a,2,0,1,1000,1500,500,1,2.649114838,133.0123428
5153,1,a,3,0,0,1000,750,250,0,2.732420011,135.7448601
5153,1,a,4,1,0,1000,1290,290,1,2.599095851,138.3440499
5153,1,a,5,1,1,1000,1290,290,1,2.449291289,140.7934316
5153,1,a,6,1,0,1000,1145,145,1,2.115931094,142.9094509
5153,1,a,7,1,1,1000,855,145,0,2.432480183,145.34202
5153,1,a,8,2,0,1000,815,185,1,2.649137265,147.9912577
5153,1,a,9,2,1,1000,1185,185,1,2.332719696,150.324083
5153,1,a,10,2,0,1000,907.5,92.5,1,2.215770266,152.5399506
5153,1,a,11,2,1,1000,1092.5,92.5,1,2.215921933,154.7559721
5153,1,a,12,2,0,1000,1046.25,46.25,0,2.215875178,156.9719389
5153,1,a,13,3,0,1000,1086.25,86.25,1,2.165990373,159.1380171
5153,1,a,14,3,1,1000,1086.25,86.25,1,2.182601156,161.3207114
5153,1,a,15,3,0,1000,1043.125,43.125,0,2.782372857,164.103185
5153,1,a,16,4,0,1000,916.875,83.125,1,2.732430654,166.835719
5153,1,a,17,4,1,1000,1083.125,83.125,1,2.299286024,169.1351027
5153,1,a,18,4,0,1000,958.4375,41.5625,1,2.515826409,171.651028
5153,1,a,19,4,1,1000,958.4375,41.5625,0,3.615516575,175.2666362
5153,1,a,20,5,0,1000,933.4375,66.5625,1,2.415845833,177.6825789
5153,1,a,21,5,1,1000,1066.5625,66.5625,0,2.732413549,180.4150947
5153,1,a,22,6,0,1000,1091.5625,91.5625,1,2.249250692,182.6644541
5153,1,a,23,6,1,1000,908.4375,91.5625,1,4.098713642,186.7632757
5153,1,a,24,6,0,1000,1045.78125,45.78125,0,2.749047519,189.5124175
5153,1,a,25,7,0,1000,929.21875,70.78125,0,2.865766598,192.3782803
5153,1,a,26,8,0,1000,904.21875,95.78125,1,2.115967965,194.4943581
5153,1,a,27,8,1,1000,1095.78125,95.78125,1,2.099232884,196.5936769
5153,1,a,28,8,0,1000,952.109375,47.890625,1,2.249312271,198.8430922
5153,1,a,29,8,1,1000,952.109375,47.890625,1,2.382496167,201.2256807
5153,1,a,30,8,0,1000,976.0546875,23.9453125,1,2.199245009,203.4250306
5153,1,a,31,8,1,1000,1023.945313,23.9453125,0,2.215936757,205.6410632
5153,1,a,32,9,0,1000,971.0546875,28.9453125,0,2.132635766,207.7738149
5153,1,a,33,10,0,1000,966.0546875,33.9453125,1,2.065898042,209.8398114
5153,1,a,34,10,1,1000,1033.945313,33.9453125,1,2.482494609,212.3223945
5153,1,a,35,10,0,1000,983.0273438,16.97265625,1,2.849100697,215.1715926
5153,1,a,36,10,1,1000,1016.972656,16.97265625,1,3.282274216,218.4539675
5153,1,a,37,10,0,1000,1008.486328,8.486328125,0,2.749087431,221.2031583
5153,1,a,38,11,0,1000,986.5136719,13.48632813,0,2.282615563,223.4858769
5153,1,a,39,12,0,1000,1018.486328,18.48632813,0,2.332522795,225.8185042
5153,1,a,40,13,0,1000,1023.486328,23.48632813,1,2.149214999,227.9678196
5153,1,a,41,13,1,1000,976.5136719,23.48632813,,0,232.5497474
5153,1,a,42,13,1,1000,976.5136719,23.48632813,1,4.365330412,236.9151664
5153,1,a,43,13,0,1000,988.2568359,11.74316406,0,2.932459467,239.8477422
5153,1,a,44,14,0,1000,1016.743164,16.74316406,0,2.382905555,242.2307492
5153,1,a,45,15,0,1000,978.2568359,21.74316406,0,2.21546313,244.4463081
5153,1,a,46,16,0,1000,973.2568359,26.74316406,1,2.266507296,246.7129108
5153,1,a,47,16,1,1000,973.2568359,26.74316406,1,2.149188771,248.8621946
5153,1,a,48,16,0,1000,986.628418,13.37158203,1,2.148819676,251.0111169
5153,1,a,49,16,1,1000,986.628418,13.37158203,1,2.449118715,253.4603683
5153,1,a,50,16,0,1000,1006.685791,6.685791016,0,2.215921933,255.6764199
5153,1,r,1,0,0,1036,1536,500,0,2.616164296,262.6910506
5153,1,r,2,1,0,1085,1625,540,1,2.215828044,264.9069813
5153,1,r,3,1,1,1037,1577,540,1,2.59912474,267.5061946
5153,1,r,4,1,0,1194,1464,270,1,2.832436698,270.3387259
5153,1,r,5,1,1,1648,1378,270,1,2.432869805,272.7716836
5153,1,r,6,1,0,1222,1087,135,0,2.532190115,275.3039683
5153,1,r,7,2,0,1336,1161,175,1,2.299232427,277.6032965
5153,1,r,8,2,1,1381,1556,175,0,2.482554288,280.0859489
5153,1,r,9,3,0,1384,1599,215,1,2.115845567,282.2020031
5153,1,r,10,3,1,1313,1098,215,1,2.182507647,284.3847685
5153,1,r,11,3,0,1343.5,1236,107.5,1,2.632354668,287.0172254
5153,1,r,12,3,1,1022,1129.5,107.5,1,2.28251179,289.2998216
5153,1,r,13,3,0,1237,1290.75,53.75,0,2.2326764,291.5325972
5153,1,r,14,4,0,1223.75,1130,93.75,0,1.582731765,293.1154358
5153,1,r,15,5,0,1405.75,1287,118.75,1,2.365848893,295.4813862
5153,1,r,16,5,1,1238,1356.75,118.75,1,1.982636583,297.4641277
5153,1,r,17,5,0,1328,1387.375,59.375,0,3.049003311,300.5132291
5153,1,r,18,6,0,1106,1190.375,84.375,1,2.332547122,302.8458613
5153,1,r,19,6,1,1261.375,1177,84.375,1,2.24934002,305.0953013
5153,1,r,20,6,0,1131,1173.1875,42.1875,1,2.215821962,307.3112179
5153,1,r,21,6,1,1197.1875,1155,42.1875,0,2.29924155,309.6105598
5153,1,r,22,7,0,1074,1141.1875,67.1875,0,2.332567649,311.9432237
5153,1,r,23,8,0,1167.1875,1075,92.1875,0,2.682443597,314.6257554
5153,1,r,24,9,0,1130,1227.1875,97.1875,0,2.432551646,317.0584112
5153,1,r,25,10,0,1463.1875,1361,102.1875,0,2.232601897,319.2911173
5153,1,r,26,11,0,1289.1875,1182,107.1875,0,2.332522415,321.6237351
5153,1,r,27,12,0,1072,1184.1875,112.1875,0,2.282545621,323.9063647
5153,1,r,28,13,0,1304.1875,1187,117.1875,0,2.31590783,326.2223653
5153,1,r,29,14,0,1229,1351.1875,122.1875,0,2.865738469,329.0881935
5153,1,r,30,15,0,1251,1378.1875,127.1875,1,3.148977425,332.2372804
5153,1,r,31,15,1,1186,1313.1875,127.1875,0,2.265886183,334.5032532
5153,1,r,32,16,0,1236,1368.1875,132.1875,1,2.165953122,336.669298
5153,1,r,33,16,1,1406.1875,1274,132.1875,1,2.265934078,338.9353138
5153,1,r,34,16,0,1147.09375,1081,66.09375,0,2.532480145,341.4678669
5223,1,a,1,0,0,1000,500,500,1,3.149166606,174.4808998
5223,1,a,2,0,1,1000,500,500,0,3.413674496,177.8946686
5223,1,a,3,1,0,1000,460,540,0,3.568889049,181.4636511
5223,1,a,4,2,0,1000,1580,580,0,3.120609622,184.584371
5223,1,a,5,3,0,1000,380,620,1,3.844586648,188.4290424
5223,1,a,6,3,1,1000,1620,620,1,3.103301645,191.5324615
5223,1,a,7,3,0,1000,690,310,1,3.362211638,194.8947666
5223,1,a,8,3,1,1000,690,310,1,3.689379697,198.5842444
5223,1,a,9,3,0,1000,845,155,1,3.499682607,202.0840308
5223,1,a,10,3,1,1000,845,155,1,2.810604719,204.894732
5223,1,a,11,3,0,1000,1077.5,77.5,1,3.31016531,208.2049905
5223,1,a,12,3,1,1000,922.5,77.5,1,4.275833679,212.4809256
5223,1,a,13,3,0,1000,961.25,38.75,1,3.482509569,215.9635435
5223,1,a,14,3,1,1000,1038.75,38.75,0,3.275926046,219.2395585
5223,1,a,15,4,0,1000,921.25,78.75,1,3.879185118,223.1188375
5223,1,a,16,4,1,1000,921.25,78.75,0,3.275911601,226.3948563
5223,1,a,17,5,0,1000,896.25,103.75,1,3.551636188,229.9465864
5223,1,a,18,5,1,1000,1103.75,103.75,0,3.241256115,233.1879425
5223,1,a,19,6,0,1000,1128.75,128.75,1,3.327526123,236.5155865
5223,1,a,20,6,1,1000,871.25,128.75,1,2.879280906,239.3949734
5223,1,a,21,6,0,1000,1064.375,64.375,1,3.378788662,242.7738617
5223,1,a,22,6,1,1000,1064.375,64.375,0,3.363227295,246.1372
5223,1,a,23,7,0,1000,910.625,89.375,0,3.567928889,249.7052318
5223,1,a,24,8,0,1000,1114.375,114.375,1,3.155061749,252.8604023
5223,1,a,25,8,1,1000,885.625,114.375,1,3.41369008,256.2742083
5223,1,a,26,8,0,1000,1057.1875,57.1875,1,3.896319765,260.1706436
5223,1,a,27,8,1,1000,1057.1875,57.1875,1,4.36201132,264.5327876
5223,1,a,28,8,0,1000,971.40625,28.59375,0,2.758513538,267.2914144
5223,1,a,29,9,0,1000,1033.59375,33.59375,0,3.293118469,270.5846534
5223,1,a,30,10,0,1000,961.40625,38.59375,1,3.292649032,273.8774123
5223,1,a,31,10,1,1000,961.40625,38.59375,1,3.896651602,277.7741707
5223,1,a,32,10,0,1000,980.703125,19.296875,1,3.275774761,281.0500568
5223,1,a,33,10,1,1000,980.703125,19.296875,1,3.482550621,284.5327211
5223,1,a,34,10,0,1000,1009.648438,9.6484375,0,4.310320396,288.8431396
5223,1,a,35,11,0,1000,1014.648438,14.6484375,1,3.517099296,292.3603563
5223,1,a,36,11,1,1000,1014.648438,14.6484375,1,3.465473751,295.8259357
5223,1,a,37,11,0,1000,1007.324219,7.32421875,1,4.361856615,300.1878851
5223,1,a,38,11,1,1000,992.6757813,7.32421875,0,2.86214968,303.0502651
5223,1,a,39,12,0,1000,987.6757813,12.32421875,1,4.344476796,307.3948598
5223,1,a,40,12,1,1000,987.6757813,12.32421875,0,3.568761332,310.9637188
5223,1,a,41,13,0,1000,1017.324219,17.32421875,1,3.000099969,313.9639362
5223,1,a,42,13,1,1000,1017.324219,17.32421875,0,3.310115516,317.2741536
5223,1,a,43,14,0,1000,1022.324219,22.32421875,1,3.706919162,320.9812837
5223,1,a,44,14,1,1000,977.6757813,22.32421875,0,3.844600712,324.8260007
5223,1,a,45,15,0,1000,1027.324219,27.32421875,0,3.792922332,328.6190192
5223,1,a,46,16,0,1000,1032.324219,32.32421875,1,3.56882443,332.1879505
5223,1,a,47,16,1,1000,1032.324219,32.32421875,0,3.465411793,335.653466
5223,1,r,1,0,0,1583,1083,500,0,2.946460596,366.135965
5223,1,r,2,1,0,1082,1622,540,1,2.689866239,368.8259228
5223,1,r,3,1,1,1671,1131,540,0,3.551590195,372.3776187
5223,1,r,4,2,0,1179,1759,580,1,2.465517084,374.8432445
5223,1,r,5,2,1,1701,1121,580,1,2.292747101,377.1360855
5223,1,r,6,2,0,1207,1497,290,0,2.396649701,379.5328477
5223,1,r,7,3,0,1160,1490,330,1,2.810228409,382.343162
5223,1,r,8,3,1,1042,1372,330,0,3.034402712,385.3777297
5223,1,r,9,4,0,1029,1399,370,1,3.172170548,388.5499922
5223,1,r,10,4,1,1314,1684,370,1,2.621284319,391.1714624
5223,1,r,11,4,0,1168,1353,185,1,2.964551602,394.1362037
5223,1,r,12,4,1,1285,1470,185,0,2.447876129,396.5841824
5223,1,r,13,5,0,1262,1052,210,0,2.069168051,398.6534657
5223,1,r,14,6,0,1453,1218,235,0,3.35643433,402.3430905
5223,1,r,15,7,0,1329,1069,260,1,2.792783591,405.136006
5223,1,r,16,7,1,1646,1386,260,0,2.741537017,407.8776308
5223,1,r,17,8,0,1049,1334,285,0,2.637863244,410.5155937
5223,1,r,18,9,0,1136,1426,290,1,1.965239603,412.4809279
5223,1,r,19,9,1,1304,1594,290,1,2.775943151,415.2569809
5223,1,r,20,9,0,1215,1360,145,0,3.034400432,418.2914779
5223,1,r,21,10,0,1249,1399,150,1,2.689616886,420.9812065
5223,1,r,22,10,1,1460,1310,150,0,2.10325223,423.0845511
5223,1,r,23,11,0,1351,1506,155,0,1.810083967,424.8947491
5223,1,r,24,12,0,1374,1214,160,0,2.017260083,426.9120955
5223,1,r,25,13,0,1118,1283,165,1,1.827585801,428.7397805
5223,1,r,26,13,1,1451,1286,165,1,1.75835161,430.498231
5223,1,r,27,13,0,1137,1219.5,82.5,1,3.431098027,433.9294461
5223,1,r,28,13,1,1163.5,1081,82.5,1,3.017085232,436.9466252
5223,1,r,29,13,0,1379.25,1338,41.25,0,2.568793641,439.5155256
5223,1,r,30,14,0,1016,1062.25,46.25,0,2.120389918,441.6360018
5223,1,r,31,15,0,1258.25,1207,51.25,1,2.276056804,443.9121548
5223,1,r,32,15,1,1173,1224.25,51.25,1,1.913697302,445.8259642
5223,1,r,33,15,0,1035,1060.625,25.625,0,2.896460026,448.7225425
5223,1,r,34,16,0,1196,1226.625,30.625,0,2.741357605,451.4640267
5136,1,a,1,0,0,1000,500,500,1,2.771555909,79.42345589
5136,1,a,2,0,1,1000,500,500,1,2.603669972,82.02721823
5136,1,a,3,0,0,1000,1250,250,1,2.75828281,84.78559873
5136,1,a,4,0,1,1000,1250,250,1,3.000122776,87.78580931
5136,1,a,5,0,0,1000,1125,125,0,3.120596318,90.90649838
5136,1,a,6,1,0,1000,1165,165,1,2.517639054,93.42424538
5136,1,a,7,1,1,1000,1165,165,1,2.964962502,96.38931014
5136,1,a,8,1,0,1000,1082.5,82.5,0,2.792994933,99.18241188
5136,1,a,9,2,0,1000,1122.5,122.5,1,2.31026604,101.4927817
5136,1,a,10,2,1,1000,1122.5,122.5,1,2.465388607,103.958268
5136,1,a,11,2,0,1000,938.75,61.25,1,2.517153272,106.4755254
5136,1,a,12,2,1,1000,1061.25,61.25,1,3.689497531,110.1651351
5136,1,a,13,2,0,1000,969.375,30.625,1,3.65506365,113.8203067
5136,1,a,14,2,1,1000,969.375,30.625,1,2.775748534,116.5961613
5136,1,a,15,2,0,1000,1015.3125,15.3125,1,2.879247076,119.4755414
5136,1,a,16,2,1,1000,984.6875,15.3125,1,2.741037171,122.2166702
5136,1,a,17,2,0,1000,992.34375,7.65625,0,2.516943071,124.733717
5136,1,a,18,3,0,1000,1047.65625,47.65625,1,3.379616544,128.1134495
5136,1,a,19,3,1,1000,1047.65625,47.65625,1,2.896443301,131.0100019
5136,1,a,20,3,0,1000,976.171875,23.828125,1,4.017123243,135.0272167
5136,1,a,21,3,1,1000,976.171875,23.828125,1,3.120417666,138.1477328
5136,1,a,22,3,0,1000,1011.914063,11.9140625,0,2.672522911,140.8203401
5136,1,a,23,4,0,1000,948.0859375,51.9140625,1,2.879078687,143.6995214
5136,1,a,24,4,1,1000,948.0859375,51.9140625,0,2.724164421,146.4237836
5136,1,a,25,5,0,1000,923.0859375,76.9140625,1,2.758537104,149.1824316
5136,1,a,26,5,1,1000,1076.914063,76.9140625,1,2.982680999,152.1652134
5136,1,a,27,5,0,1000,961.5429688,38.45703125,0,2.689508935,154.8548344
5136,1,a,28,6,0,1000,1063.457031,63.45703125,1,2.741457954,157.596438
5136,1,a,29,6,1,1000,936.5429688,63.45703125,1,2.464949198,160.0614921
5136,1,a,30,6,0,1000,1031.728516,31.72851563,1,2.586305358,162.6478875
5136,1,a,31,6,1,1000,1031.728516,31.72851563,1,2.672345399,165.3203371
5136,1,a,32,6,0,1000,984.1357422,15.86425781,0,2.948214048,168.268664
5136,1,a,33,7,0,1000,959.1357422,40.86425781,1,2.965388226,171.2341594
5136,1,a,34,7,1,1000,1040.864258,40.86425781,1,2.637669387,173.8719136
5136,1,a,35,7,0,1000,979.5678711,20.43212891,1,2.896600287,176.7686234
5136,1,a,36,7,1,1000,1020.432129,20.43212891,1,2.741286904,179.5100087
5136,1,a,37,7,0,1000,989.7839355,10.21606445,0,2.741275881,182.2513857
5136,1,a,38,8,0,1000,964.7839355,35.21606445,1,2.465412554,184.7169115
5136,1,a,39,8,1,1000,1035.216064,35.21606445,1,2.379229211,187.0962491
5136,1,a,40,8,0,1000,982.3919678,17.60803223,0,3.896414792,190.9927558
5136,1,a,41,9,0,1000,977.3919678,22.60803223,1,2.517187102,193.5100532
5136,1,a,42,9,1,1000,1022.608032,22.60803223,1,2.13761199,195.6477777
5136,1,a,43,9,0,1000,1011.304016,11.30401611,0,2.086268488,197.734145
5136,1,a,44,10,0,1000,1016.304016,16.30401611,1,2.086097438,199.8203295
5136,1,a,45,10,1,1000,1016.304016,16.30401611,0,2.241324535,202.0617582
5136,1,a,46,11,0,1000,978.6959839,21.30401611,0,2.292954261,204.3548132
5136,1,a,47,12,0,1000,973.6959839,26.30401611,1,2.258504415,206.6134191
5136,1,a,48,12,1,1000,1026.304016,26.30401611,1,2.465409513,209.0789255
5136,1,a,49,12,0,1000,986.8479919,13.15200806,1,2.465457787,211.5444802
5136,1,a,50,12,1,1000,986.8479919,13.15200806,0,2.430941801,213.9755178
5136,1,a,51,13,0,1000,1018.152008,18.15200806,1,2.620624066,216.5962498
5136,1,a,52,13,1,1000,1018.152008,18.15200806,0,2.568957849,219.1653202
5136,1,a,53,14,0,1000,1023.152008,23.15200806,1,2.551147745,221.7165652
5136,1,a,54,14,1,1000,976.8479919,23.15200806,0,2.723913548,224.4405643
5136,1,a,55,15,0,1000,971.8479919,28.15200806,1,2.983133332,227.4237961
5136,1,a,56,15,1,1000,971.8479919,28.15200806,1,2.568678468,229.9927384
5136,1,a,57,15,0,1000,1014.076004,14.07600403,0,2.396469528,232.3893208
5136,1,a,58,16,0,1000,1019.076004,19.07600403,1,2.034362421,234.4237991
5136,1,a,59,16,1,1000,1019.076004,19.07600403,1,2.241267138,236.6651605
5136,1,a,60,16,0,1000,1009.538002,9.538002014,1,1.914048525,238.5792938
5136,1,a,61,16,1,1000,990.461998,9.538002014,1,2.120326059,240.6997438
5136,1,a,62,16,0,1000,1004.769001,4.769001007,1,2.258477807,242.9583299
5136,1,a,63,16,1,1000,1004.769001,4.769001007,0,2.051627446,245.0100509
5136,1,r,1,0,0,1117,1617,500,1,2.768145932,254.1824423
5136,1,r,2,0,1,1649,1149,500,1,2.74124091,256.9237889
5136,1,r,3,0,0,1649,1399,250,0,2.689676183,259.6135586
5136,1,r,4,1,0,1481,1191,290,1,3.258288132,262.8719459
5136,1,r,5,1,1,1317,1027,290,1,2.706933226,265.5789783
5136,1,r,6,1,0,1025,1170,145,1,2.534073156,268.1131344
5136,1,r,7,1,1,1364,1509,145,1,2.448538283,270.5617852
5136,1,r,8,1,0,1239,1311.5,72.5,0,2.310174433,272.8720523
5136,1,r,9,2,0,1302.5,1190,112.5,0,2.225062623,275.0971974
5136,1,r,10,3,0,1356,1508.5,152.5,1,2.412703692,277.5099893
5136,1,r,11,3,1,1530.5,1378,152.5,0,2.620615704,280.1307069
5136,1,r,12,4,0,1438.5,1246,192.5,1,2.53418795,282.665029
5136,1,r,13,4,1,1363.5,1171,192.5,1,2.775912742,285.4410509
5136,1,r,14,4,0,1210.25,1114,96.25,0,2.39647561,287.8376245
5136,1,r,15,5,0,1097,1218.25,121.25,0,1.793049289,289.6307985
5136,1,r,16,6,0,1252,1398.25,146.25,1,2.654981546,292.2858751
5136,1,r,17,6,1,1371,1517.25,146.25,1,3.068916037,295.3548789
5136,1,r,18,6,0,1090,1163.125,73.125,1,2.258366435,297.6133389
5136,1,r,19,6,1,1466.125,1393,73.125,1,2.000007602,299.6134677
5136,1,r,20,6,0,1215,1251.5625,36.5625,1,1.999889388,301.6134487
5136,1,r,21,6,1,1352,1388.5625,36.5625,1,2.379755665,303.9932983
5136,1,r,22,6,0,1329.28125,1311,18.28125,1,2.551143564,306.544549
5136,1,r,23,6,1,1064,1082.28125,18.28125,1,2.18966516,308.7343252
5136,1,r,24,6,0,1162,1171.140625,9.140625,0,1.896272251,310.6306921
5136,1,r,25,7,0,1290,1324.140625,34.140625,1,2.396491955,313.0272969
5136,1,r,26,7,1,1289,1323.140625,34.140625,0,2.775618916,315.8029991
5136,1,r,27,8,0,1101.140625,1042,59.140625,0,2.603815175,318.4069378
5136,1,r,28,9,0,1331,1395.140625,64.140625,1,2.430544205,320.8375949
5136,1,r,29,9,1,1440.140625,1376,64.140625,1,2.465243784,323.3029303
5136,1,r,30,9,0,1305.070313,1273,32.0703125,0,2.948224691,326.2512538
5136,1,r,31,10,0,1105,1142.070313,37.0703125,0,2.414228318,328.6655855
5136,1,r,32,11,0,1083,1125.070313,42.0703125,1,2.396076113,331.061765
5136,1,r,33,11,1,1159,1201.070313,42.0703125,1,2.430579555,333.492435
5136,1,r,34,11,0,1398,1419.035156,21.03515625,1,2.448465302,335.9410041
5136,1,r,35,11,1,1178.035156,1157,21.03515625,0,2.586195506,338.5272863
5136,1,r,36,12,0,1341,1367.035156,26.03515625,1,2.499839213,341.0272418
5136,1,r,37,12,1,1168.035156,1142,26.03515625,1,2.603399713,343.6307365
5136,1,r,38,12,0,1204.017578,1191,13.01757813,0,2.603372345,346.2342081
5136,1,r,39,13,0,1211,1229.017578,18.01757813,1,2.586120624,348.8204416
5136,1,r,40,13,1,1352.017578,1334,18.01757813,1,2.482595854,351.3031424
5136,1,r,41,13,0,1286,1295.008789,9.008789063,1,2.430949403,353.7341803
5136,1,r,42,13,1,1095.008789,1086,9.008789063,1,2.482673017,356.2169454
5136,1,r,43,13,0,1337.504395,1333,4.504394531,0,2.396583942,358.613635
5136,1,r,44,14,0,1246,1255.504395,9.504394531,0,2.430814844,361.0445543
5136,1,r,45,15,0,1289.504395,1275,14.50439453,0,2.534319088,363.5789867
5136,1,r,46,16,0,1281.504395,1262,19.50439453,1,2.568852939,366.1479499
5136,1,r,47,16,1,1139.504395,1120,19.50439453,0,2.758430293,368.9064653
5197,1,a,1,0,0,1000,500,500,1,2.829200512,126.7362527
5197,1,a,2,0,1,1000,1500,500,0,2.999979474,129.7363386
5197,1,a,3,1,0,1000,1540,540,1,3.568835454,133.3052786
5197,1,a,4,1,1,1000,1540,540,0,2.379175235,135.6845534
5197,1,a,5,2,0,1000,420,580,1,3.948183639,139.6328298
5197,1,a,6,2,1,1000,1580,580,1,3.068973814,142.7019173
5197,1,a,7,2,0,1000,1290,290,0,2.965393168,145.6674207
5197,1,a,8,3,0,1000,670,330,1,3.810150866,149.4776768
5197,1,a,9,3,1,1000,1330,330,1,4.03435862,153.5121366
5197,1,a,10,3,0,1000,1165,165,,0,158.0982849
5197,1,a,11,3,0,1000,835,165,1,4.189626009,162.2880546
5197,1,a,12,3,1,1000,835,165,1,2.344669892,164.6328203
5197,1,a,13,3,0,1000,1082.5,82.5,0,2.568982177,167.2018979
5197,1,a,14,4,0,1000,1122.5,122.5,1,2.241212022,169.4432148
5197,1,a,15,4,1,1000,1122.5,122.5,1,2.224034423,171.667345
5197,1,a,16,4,0,1000,938.75,61.25,0,1.913696162,173.5811358
5197,1,a,17,5,0,1000,913.75,86.25,1,2.292947039,175.8741756
5197,1,a,18,5,1,1000,1086.25,86.25,0,2.120633949,177.9949023
5197,1,a,19,6,0,1000,1111.25,111.25,0,2.58610428,180.5811024
5197,1,a,20,7,0,1000,1136.25,136.25,1,2.275824176,182.8570315
5197,1,a,21,7,1,1000,863.75,136.25,0,2.223996032,185.0811263
5197,1,a,22,8,0,1000,838.75,161.25,1,2.775745113,187.8569688
5197,1,a,23,8,1,1000,1161.25,161.25,1,3.017711655,190.8747728
5197,1,a,24,8,0,1000,1080.625,80.625,0,2.361441153,193.2363143
5197,1,a,25,9,0,1000,1085.625,85.625,1,2.551597417,195.7880079
5197,1,a,26,9,1,1000,914.375,85.625,0,2.655219495,198.4433425
5197,1,a,27,10,0,1000,909.375,90.625,1,2.361880561,200.8053238
5197,1,a,28,10,1,1000,909.375,90.625,1,2.241210122,203.0466411
5197,1,a,29,10,0,1000,1045.3125,45.3125,0,2.414191827,205.4609174
5197,1,a,30,11,0,1000,949.6875,50.3125,0,2.827041101,208.2880558
5197,1,a,31,12,0,1000,944.6875,55.3125,1,3.258499473,211.5466526
5197,1,a,32,12,1,1000,1055.3125,55.3125,0,2.431011362,213.977765
5197,1,a,33,13,0,1000,1060.3125,60.3125,1,2.982575328,216.9604399
5197,1,a,34,13,1,1000,1060.3125,60.3125,1,2.723898343,219.6844333
5197,1,a,35,13,0,1000,1030.15625,30.15625,1,2.241415382,221.925943
5197,1,a,36,13,1,1000,1030.15625,30.15625,1,2.258604004,224.1846507
5197,1,a,37,13,0,1000,1015.078125,15.078125,1,2.154983446,226.3397296
5197,1,a,38,13,1,1000,1015.078125,15.078125,1,2.155111924,228.4949411
5197,1,a,39,13,0,1000,1007.539063,7.5390625,1,2.413675636,230.908714
5197,1,a,40,13,1,1000,1007.539063,7.5390625,1,2.310356886,233.2191739
5197,1,a,41,13,0,1000,996.2304688,3.76953125,0,2.241161087,235.4604316
5197,1,a,42,14,0,1000,1008.769531,8.76953125,0,2.413720109,237.874249
5197,1,a,43,15,0,1000,1013.769531,13.76953125,0,2.74130895,240.6156613
5197,1,a,44,16,0,1000,1018.769531,18.76953125,1,2.27580555,242.8915726
5197,1,a,45,16,1,1000,981.2304688,18.76953125,0,2.051515313,244.943181
5197,1,r,1,0,0,1562,1062,500,1,2.812841672,251.5638621
5197,1,r,2,0,1,1002,1502,500,1,2.603380328,254.1673374
5197,1,r,3,0,0,1186,1436,250,0,2.448242937,256.615672
5197,1,r,4,1,0,1228,1518,290,1,4.258471345,260.8742395
5197,1,r,5,1,1,1221,1511,290,,0,265.4604263
5197,1,r,6,1,1,1219,1509,290,1,2.793012798,268.2535409
5197,1,r,7,1,0,1490,1345,145,1,2.189506274,270.4431396
5197,1,r,8,1,1,1171,1316,145,0,2.293063353,272.7362964
5197,1,r,9,2,0,1431,1246,185,0,2.172489081,274.9088946
5197,1,r,10,3,0,1263,1038,225,1,2.22392191,277.132915
5197,1,r,11,3,1,1194,1419,225,1,2.241215063,279.3742304
5197,1,r,12,3,0,1259.5,1147,112.5,1,2.120618745,281.4949476
5197,1,r,13,3,1,1447.5,1335,112.5,0,2.137837776,283.6328766
5197,1,r,14,4,0,1322.5,1170,152.5,1,2.292978208,285.9259452
5197,1,r,15,4,1,1259.5,1107,152.5,1,2.189572033,288.1156096
5197,1,r,16,4,0,1077,1153.25,76.25,0,2.310253116,290.4259551
5197,1,r,17,5,0,1119,1220.25,101.25,1,2.138376013,292.5644216
5197,1,r,18,5,1,1205.25,1104,101.25,0,2.223410661,294.7880546
5197,1,r,19,6,0,1398.25,1272,126.25,0,2.930959286,297.7191131
5197,1,r,20,7,0,1379.25,1228,151.25,1,2.103949734,299.8231564
5197,1,r,21,7,1,1410.25,1259,151.25,1,2.206211395,302.0294601
5197,1,r,22,7,0,1315,1390.625,75.625,1,2.861996115,304.8915486
5197,1,r,23,7,1,1288.625,1213,75.625,1,2.758476667,307.6501127
5197,1,r,24,7,0,1318.8125,1281,37.8125,0,2.155152216,309.8053501
5197,1,r,25,8,0,1295,1357.8125,62.8125,0,2.413677537,312.219126
5197,1,r,26,9,0,1351,1418.8125,67.8125,0,2.499957428,314.719237
5197,1,r,27,10,0,1287.8125,1215,72.8125,0,3.499783717,318.2191226
5197,1,r,28,11,0,1243,1320.8125,77.8125,0,2.137811549,320.3570281
5197,1,r,29,12,0,1064,1146.8125,82.8125,0,2.206848461,322.5639609
5197,1,r,30,13,0,1451.8125,1364,87.8125,0,4.206808549,326.7708516
5197,1,r,31,14,0,1295.8125,1203,92.8125,,0,331.3570155
5197,1,r,32,14,0,1031,1123.8125,92.8125,0,2.930952824,334.2880546
5197,1,r,33,15,0,1446.8125,1349,97.8125,0,2.586109221,336.8742513
5197,1,r,34,16,0,1042,1144.8125,102.8125,1,4.551651392,341.426
5197,1,r,35,16,1,1159.8125,1057,102.8125,1,2.793002535,344.2191002
5197,1,r,36,16,0,1098.40625,1047,51.40625,1,2.655182244,346.8743786
5197,1,r,37,16,1,1006,1057.40625,51.40625,1,2.689511215,349.5639925
5197,1,r,38,16,0,1356,1381.703125,25.703125,1,2.551618323,352.1157134
5197,1,r,39,16,1,1335,1360.703125,25.703125,1,2.137825613,354.2536447
5197,1,r,40,16,0,1242,1254.851563,12.8515625,1,2.568863202,356.8226052
5197,1,r,41,16,1,1164,1176.851563,12.8515625,1,2.22398881,359.0466864
5197,1,r,42,16,0,1082,1088.425781,6.42578125,1,2.293127212,361.339909
5197,1,r,43,16,1,1376.425781,1370,6.42578125,0,2.396368799,363.736369
5035,1,a,1,0,0,1000,1500,500,1,3.178912198,87.37586713
5035,1,a,2,0,1,1000,1500,500,1,2.327555392,89.70351565
5035,1,a,3,0,0,1000,750,250,1,2.827394605,92.53100376
5035,1,a,4,0,1,1000,1250,250,1,2.568908055,95.1000095
5035,1,a,5,0,0,1000,1125,125,0,3.241279302,98.34137091
5035,1,a,6,1,0,1000,835,165,1,2.99986392,101.3413291
5035,1,a,7,1,1,1000,835,165,1,2.775823416,104.1172521
5035,1,a,8,1,0,1000,1082.5,82.5,1,3.189544665,107.3068899
5035,1,a,9,1,1,1000,1082.5,82.5,0,2.051654433,109.3586644
5035,1,a,10,2,0,1000,1122.5,122.5,1,2.982557463,112.3413211
5035,1,a,11,2,1,1000,877.5,122.5,1,3.034447185,115.3758618
5035,1,a,12,2,0,1000,938.75,61.25,1,4.379196141,119.7551678
5035,1,a,13,2,1,1000,938.75,61.25,1,3.275787305,123.0310752
5035,1,a,14,2,0,1000,969.375,30.625,0,2.810251976,125.8414283
5035,1,a,15,3,0,1000,1070.625,70.625,1,2.568770835,128.4102923
5035,1,a,16,3,1,1000,929.375,70.625,0,3.586205389,131.9965828
5035,1,a,17,4,0,1000,889.375,110.625,1,2.776208848,134.7728825
5035,1,a,18,4,1,1000,1110.625,110.625,1,2.775333833,137.5483129
5035,1,a,19,4,0,1000,944.6875,55.3125,1,2.430914813,139.9793353
5035,1,a,20,4,1,1000,1055.3125,55.3125,1,2.620510793,142.5999392
5035,1,a,21,4,0,1000,972.34375,27.65625,0,3.206868607,145.8069123
5035,1,a,22,5,0,1000,947.34375,52.65625,1,2.431003379,148.2380145
5035,1,a,23,5,1,1000,947.34375,52.65625,1,2.637727164,150.875831
