"","Subject","cond","trialNum","reversals","streakLength","lowFreq","highFreq","freqDiff","correct","RT","Time"
"1","ABCD_1701","a",1,0,0,1000,1500,500,1,2.89440584183,55.403512001
"2","ABCD_1701","a",2,0,1,1000,1500,500,1,2.33785295486,57.7415599823
"3","ABCD_1701","a",3,0,0,1000,750,250,1,2.62221693993,60.3642001152
"4","ABCD_1701","a",4,0,1,1000,750,250,1,2.15460205078,62.5190460682
"5","ABCD_1701","a",5,0,0,1000,1125,125,1,2.45445203781,64.9736690521
"6","ABCD_1701","a",6,0,1,1000,875,125,1,2.33813905716,67.3119771481
"7","ABCD_1701","a",7,0,0,1000,1062.5,62.5,1,2.62207508087,69.9342131615
"8","ABCD_1701","a",8,0,1,1000,937.5,62.5,1,2.87295103073,72.8073899746
"9","ABCD_1701","a",9,0,0,1000,968.75,31.25,1,2.00372314453,74.8112909794
"10","ABCD_1701","a",10,0,1,1000,1031.25,31.25,1,2.25474405289,77.0664169788
"11","ABCD_1701","a",11,0,0,1000,984.375,15.625,0,3.12287902832,80.1896440983
"12","ABCD_1701","a",12,1,0,1000,1055.625,55.625,1,3.22317790985,83.4132151604
"13","ABCD_1701","a",13,1,1,1000,944.375,55.625,1,2.9391438961,86.3525531292
"14","ABCD_1701","a",14,1,0,1000,972.1875,27.8125,1,2.87253713608,89.225249052
"15","ABCD_1701","a",15,1,1,1000,972.1875,27.8125,1,2.2713868618,91.4967501163
"16","ABCD_1701","a",16,1,0,1000,1013.90625,13.90625,1,2.37174105644,93.8688499928
"17","ABCD_1701","a",17,1,1,1000,986.09375,13.90625,1,2.42138886452,96.2905781269
"18","ABCD_1701","a",18,1,0,1000,993.046875,6.953125,1,2.63864803314,98.9294290543
"19","ABCD_1701","a",19,1,1,1000,1006.953125,6.953125,0,2.58865380287,101.518404007
"20","ABCD_1701","a",20,2,0,1000,1046.953125,46.953125,1,2.83896589279,104.357784986
"21","ABCD_1701","a",21,2,1,1000,953.046875,46.953125,1,2.82237386703,107.180359125
"22","ABCD_1701","a",22,2,0,1000,976.5234375,23.4765625,1,2.30461621284,109.485136986
"23","ABCD_1701","a",23,2,1,1000,976.5234375,23.4765625,1,2.52186083794,112.007385015
"24","ABCD_1701","a",24,2,0,1000,1011.73828125,11.73828125,1,2.67199397087,114.679516077
"25","ABCD_1701","a",25,2,1,1000,1011.73828125,11.73828125,1,3.00641489029,117.686262131
"26","ABCD_1701","a",26,2,0,1000,994.130859375,5.869140625,1,3.08948016167,120.775949001
"27","ABCD_1701","a",27,2,1,1000,994.130859375,5.869140625,0,2.77294611931,123.549112082
"28","ABCD_1701","a",28,3,0,1000,1045.86914062,45.869140625,1,2.25402092934,125.803280115
"29","ABCD_1701","a",29,3,1,1000,1045.86914062,45.869140625,1,2.28814792633,128.091761112
"30","ABCD_1701","a",30,3,0,1000,1022.93457031,22.9345703125,1,2.12079000473,130.212899208
"31","ABCD_1701","a",31,3,1,1000,1022.93457031,22.9345703125,1,2.42150402069,132.634787083
"32","ABCD_1701","a",32,3,0,1000,988.532714844,11.4672851562,1,2.70542883873,135.340605974
"33","ABCD_1701","a",33,3,1,1000,988.532714844,11.4672851562,1,2.57169890404,137.912693977
"34","ABCD_1701","a",34,3,0,1000,994.266357422,5.73364257812,1,2.57171988487,140.484619141
"35","ABCD_1701","a",35,3,1,1000,1005.73364258,5.73364257812,1,2.67225003242,143.157191038
"36","ABCD_1701","a",36,3,0,1000,997.133178711,2.86682128906,0,2.35466718674,145.51216507
"37","ABCD_1701","a",37,4,0,1000,957.133178711,42.8668212891,1,2.33801102638,147.850570202
"38","ABCD_1701","a",38,4,1,1000,1042.86682129,42.8668212891,1,2.33786296844,150.188639164
"39","ABCD_1701","a",39,4,0,1000,1021.43341064,21.4334106445,1,2.4718310833,152.660792112
"40","ABCD_1701","a",40,4,1,1000,1021.43341064,21.4334106445,1,2.40470814705,155.065701008
"41","ABCD_1701","a",41,4,0,1000,1010.71670532,10.7167053223,1,2.32153487206,157.387580156
"42","ABCD_1701","a",42,4,1,1000,1010.71670532,10.7167053223,1,2.40472006798,159.792500019
"43","ABCD_1701","a",43,4,0,1000,994.641647339,5.35835266113,1,2.68882703781,162.481498003
"44","ABCD_1701","a",44,4,1,1000,1005.35835266,5.35835266113,1,2.67225289345,165.154123068
"45","ABCD_1701","a",45,4,0,1000,997.320823669,2.67917633057,1,2.38794779778,167.542277098
"46","ABCD_1701","a",46,4,1,1000,997.320823669,2.67917633057,1,2.28813815117,169.830749989
"47","ABCD_1701","a",47,4,0,1000,998.660411835,1.33958816528,0,2.4380941391,172.269047022
"48","ABCD_1701","a",48,5,0,1000,1026.33958817,26.3395881653,1,2.45529508591,174.724649191
"49","ABCD_1701","a",49,5,1,1000,1026.33958817,26.3395881653,1,2.18746399879,176.912274122
"50","ABCD_1701","a",50,5,0,1000,986.830205917,13.1697940826,1,2.37155508995,179.284018993
"51","ABCD_1701","a",51,5,1,1000,1013.16979408,13.1697940826,1,2.10435295105,181.388704062
"52","ABCD_1701","a",52,5,0,1000,993.415102959,6.58489704132,1,2.32116985321,183.710070133
"53","ABCD_1701","a",53,5,1,1000,1006.58489704,6.58489704132,0,2.50522303581,186.215649128
"54","ABCD_1701","a",54,6,0,1000,968.415102959,31.5848970413,1,2.23681497574,188.4535532
"55","ABCD_1701","a",55,6,1,1000,968.415102959,31.5848970413,1,2.08766388893,190.541397095
"56","ABCD_1701","a",56,6,0,1000,984.207551479,15.7924485207,0,2.02075600624,192.562514067
"57","ABCD_1701","a",57,7,0,1000,959.207551479,40.7924485207,1,2.07037091255,194.633086205
"58","ABCD_1701","a",58,7,1,1000,959.207551479,40.7924485207,1,2.05444812775,196.687708139
"59","ABCD_1701","a",59,7,0,1000,979.60377574,20.3962242603,1,2.27140402794,198.959284067
"60","ABCD_1701","a",60,7,1,1000,1020.39622426,20.3962242603,1,2.38823199272,201.347627163
"61","ABCD_1701","a",61,7,0,1000,989.80188787,10.1981121302,1,2.65557289124,204.0033741
"62","ABCD_1701","a",62,7,1,1000,1010.19811213,10.1981121302,1,2.1878798008,206.191624165
"63","ABCD_1701","a",63,7,0,1000,994.900943935,5.09905606508,1,2.47152495384,208.663552999
"64","ABCD_1701","a",64,7,1,1000,1005.09905607,5.09905606508,1,2.08731293678,210.751214027
"65","ABCD_1701","a",65,7,0,1000,997.450471967,2.54952803254,1,1.97052812576,212.721935987
"66","ABCD_1701","a",66,7,1,1000,1002.54952803,2.54952803254,1,2.1711230278,214.893232107
"67","ABCD_1701","a",67,7,0,1000,1001.27476402,1.27476401627,1,2.10431718826,216.997720003
"68","ABCD_1701","a",68,7,1,1000,998.725235984,1.27476401627,0,2.07091593742,219.068929195
"69","ABCD_1701","a",69,8,0,1000,973.725235984,26.2747640163,1,2.28790402412,221.357040167
"70","ABCD_1701","a",70,8,1,1000,1026.27476402,26.2747640163,1,2.20447707176,223.56182909
"71","ABCD_1701","r",1,0,0,1358,1858,500,1,2.94561910629,229.674760103
"72","ABCD_1701","r",2,0,1,1140,1640,500,1,2.75570201874,232.430644035
"73","ABCD_1701","r",3,0,0,1367,1617,250,1,3.29015517235,235.721103191
"74","ABCD_1701","r",4,0,1,1427,1177,250,1,3.50711894035,239.228411198
"75","ABCD_1701","r",5,0,0,1299,1174,125,1,2.43836593628,241.666952133
"76","ABCD_1701","r",6,0,1,1182,1307,125,1,3.03965401649,244.706780195
"77","ABCD_1701","r",7,0,0,1269.5,1207,62.5,1,3.1899600029,247.896853209
"78","ABCD_1701","r",8,0,1,1159,1221.5,62.5,1,1.98747587204,249.884636164
"79","ABCD_1701","r",9,0,0,1174.25,1143,31.25,1,2.22105002403,252.105882168
"80","ABCD_1701","r",10,0,1,1365.25,1334,31.25,1,2.25472593307,254.360948086
"81","ABCD_1701","r",11,0,0,1201,1216.625,15.625,0,2.07063794136,256.431774139
"82","ABCD_1701","r",12,1,0,1369,1424.625,55.625,1,2.05406594276,258.486160994
"83","ABCD_1701","r",13,1,1,1227,1282.625,55.625,1,2.05421090126,260.540781975
"84","ABCD_1701","r",14,1,0,1320.8125,1293,27.8125,1,2.50487089157,263.045854092
"85","ABCD_1701","r",15,1,1,1051,1078.8125,27.8125,1,2.20463395119,265.25082016
"86","ABCD_1701","r",16,1,0,1386,1399.90625,13.90625,1,3.82443213463,269.075607061
"87","ABCD_1701","r",17,1,1,1038.90625,1025,13.90625,1,2.9892809391,272.065093994
"88","ABCD_1701","r",18,1,0,1374,1380.953125,6.953125,0,2.5719909668,274.637261152
"89","ABCD_1701","r",19,2,0,1303,1349.953125,46.953125,1,3.52406215668,278.161669016
"90","ABCD_1701","r",20,2,1,1145,1191.953125,46.953125,1,2.70539784431,280.867457151
"91","ABCD_1701","r",21,2,0,1360,1383.4765625,23.4765625,0,2.55503892899,283.422870159
"92","ABCD_1701","r",22,3,0,1063,1126.4765625,63.4765625,1,2.25426101685,285.677335978
"93","ABCD_1701","r",23,3,1,1403.4765625,1340,63.4765625,1,2.1545779705,287.832236052
"94","ABCD_1701","r",24,3,0,1120,1151.73828125,31.73828125,0,2.1708920002,290.003331184
"95","ABCD_1701","r",25,4,0,1427.73828125,1356,71.73828125,1,2.60604119301,292.609667063
"96","ABCD_1701","r",26,4,1,1127,1198.73828125,71.73828125,1,2.13693189621,294.746779203
"97","ABCD_1701","r",27,4,0,1189,1224.86914062,35.869140625,1,2.07100486755,296.818127155
"98","ABCD_1701","r",28,4,1,1387,1422.86914062,35.869140625,1,2.08722400665,298.905562162
"99","ABCD_1701","r",29,4,0,1265,1282.93457031,17.9345703125,1,2.33823013306,301.243966103
"100","ABCD_1701","r",30,4,1,1002,1019.93457031,17.9345703125,0,2.33818101883,303.582446098
"101","ABCD_1701","r",31,5,0,1313.93457031,1271,42.9345703125,0,2.38809394836,305.970751047
"102","ABCD_1701","r",32,6,0,1389.93457031,1322,67.9345703125,1,3.02305102348,308.994122028
"103","ABCD_1701","r",33,6,1,1103,1170.93457031,67.9345703125,1,2.28774905205,311.28207016
"104","ABCD_1701","r",34,6,0,1107,1140.96728516,33.9672851562,1,2.83918905258,314.121417046
"105","ABCD_1701","r",35,6,1,1014,1047.96728516,33.9672851562,1,2.28808903694,316.409824133
"106","ABCD_1701","r",36,6,0,1271.98364258,1255,16.9836425781,1,2.9391810894,319.349215031
"107","ABCD_1701","r",37,6,1,1314,1330.98364258,16.9836425781,0,3.70774388313,323.057133198
"108","ABCD_1701","r",38,7,0,1200,1241.98364258,41.9836425781,1,2.1878080368,325.245107174
"109","ABCD_1701","r",39,7,1,1388,1429.98364258,41.9836425781,1,2.6388528347,327.884137154
"110","ABCD_1701","r",40,7,0,1203.99182129,1183,20.9918212891,1,2.38830304146,330.272803068
"111","ABCD_1701","r",41,7,1,1141.99182129,1121,20.9918212891,1,2.32113790512,332.594144106
"112","ABCD_1701","r",42,7,0,1358.49591064,1348,10.4959106445,1,2.3214609623,334.915921211
"113","ABCD_1701","r",43,7,1,1144.49591064,1134,10.4959106445,0,3.90794014931,338.824048996
"114","ABCD_1701","r",44,8,0,1239.49591064,1204,35.4959106445,1,2.97292613983,341.797352076
"115","ABCD_1701","r",45,8,1,1061,1096.49591064,35.4959106445,1,3.69083690643,345.488584042
"116","ABCD_1701","r",46,8,0,1208.74795532,1191,17.7479553223,1,2.32116508484,347.810129166
"117","ABCD_1701","r",47,8,1,1208,1225.74795532,17.7479553223,0,2.23773503304,350.048201084
"118","ABCD_1701","r",48,9,0,1057,1079.74795532,22.7479553223,0,2.52161502838,352.569961071
"119","ABCD_1701","r",49,10,0,1286.74795532,1259,27.7479553223,0,3.08987617493,355.660178185
"120","ABCD_1701","r",50,11,0,1272.74795532,1240,32.7479553223,1,3.18980407715,358.850386143
"121","ABCD_1701","r",51,11,1,1126.74795532,1094,32.7479553223,1,2.75547504425,361.606250048
"122","ABCD_1701","r",52,11,0,1215,1231.37397766,16.3739776611,0,2.52163004875,364.128213167
"123","ABCD_1701","r",53,12,0,1033.37397766,1012,21.3739776611,0,2.95595407486,367.084376097
"124","ABCD_1701","r",54,13,0,1045.37397766,1019,26.3739776611,1,2.63872790337,369.723265171
"125","ABCD_1701","r",55,13,1,1241.37397766,1215,26.3739776611,1,2.85595202446,372.579384089
"126","ABCD_1701","r",56,13,0,1394,1407.18698883,13.1869888306,0,2.30482387543,374.884597063
"127","ABCD_1701","r",57,14,0,1191,1209.18698883,18.1869888306,0,2.42123818398,377.306164026
"128","ABCD_1701","r",58,15,0,1232.18698883,1209,23.1869888306,1,3.34026503563,380.646638155
"129","ABCD_1701","r",59,15,1,1304,1327.18698883,23.1869888306,1,2.92269611359,383.569509983
"130","ABCD_1701","r",60,15,0,1411.59349442,1400,11.5934944153,0,2.33813905716,385.907891989
"131","ABCD_1701","r",61,16,0,1340.59349442,1324,16.5934944153,1,2.30454802513,388.212867022
"132","ABCD_1701","r",62,16,1,1200.59349442,1184,16.5934944153,1,2.87241196632,391.085427999
"133","ABCD_1701","r",63,16,0,1284.29674721,1276,8.29674720764,1,2.68897914886,393.774707079
"134","ABCD_1701","r",64,16,1,1280.29674721,1272,8.29674720764,1,2.47155284882,396.24643302
"135","ABCD_1701","r",65,16,0,1084.1483736,1080,4.14837360382,1,3.80804896355,400.054644108
"136","ABCD_1701","r",66,16,1,1318,1322.1483736,4.14837360382,0,2.43842411041,402.493341208
"137","ABCD_1702","a",1,0,0,1000,500,500,1,2.6264295027,81.8399949065
"138","ABCD_1702","a",2,0,1,1000,1500,500,1,2.70670743991,84.5468448881
"139","ABCD_1702","a",3,0,0,1000,1250,250,1,4.01706242564,88.5639875172
"140","ABCD_1702","a",4,0,1,1000,1250,250,1,2.91383946389,91.4779140265
"141","ABCD_1702","a",5,0,0,1000,1125,125,0,2.81020142086,94.288213516
"142","ABCD_1702","a",6,1,0,1000,835,165,1,3.67259589252,97.9609112783
"143","ABCD_1702","a",7,1,1,1000,835,165,1,2.87885290082,100.839848564
"144","ABCD_1702","a",8,1,0,1000,917.5,82.5,1,3.81028162429,104.650212292
"145","ABCD_1702","a",9,1,1,1000,917.5,82.5,1,2.96550644098,107.615817942
"146","ABCD_1702","a",10,1,0,1000,958.75,41.25,0,3.62053093914,111.236442388
"147","ABCD_1702","a",11,2,0,1000,918.75,81.25,1,2.93094940342,114.167484159
"148","ABCD_1702","a",12,2,1,1000,1081.25,81.25,1,2.72405532897,116.891619311
"149","ABCD_1702","a",13,2,0,1000,1040.625,40.625,1,2.53423090227,119.425931177
"150","ABCD_1702","a",14,2,1,1000,1040.625,40.625,1,2.60354339538,122.029573021
"151","ABCD_1702","a",15,2,0,1000,979.6875,20.3125,1,2.7068511219,124.736518791
"152","ABCD_1702","a",16,2,1,1000,1020.3125,20.3125,1,3.25853102277,127.995142181
"153","ABCD_1702","a",17,2,0,1000,1010.15625,10.15625,1,2.84462123833,130.839857686
"154","ABCD_1702","a",18,2,1,1000,1010.15625,10.15625,NA,0,135.426096906
"155","ABCD_1702","a",19,2,1,1000,989.84375,10.15625,0,3.22359919568,138.64979493
"156","ABCD_1702","a",20,3,0,1000,949.84375,50.15625,1,2.74194487629,141.391842436
"157","ABCD_1702","a",21,3,1,1000,1050.15625,50.15625,1,2.77555999863,144.167497843
"158","ABCD_1702","a",22,3,0,1000,1025.078125,25.078125,1,2.53445554791,146.702043097
"159","ABCD_1702","a",23,3,1,1000,974.921875,25.078125,1,2.60312565332,149.305261117
"160","ABCD_1702","a",24,3,0,1000,987.4609375,12.5390625,1,3.24144997168,152.546809538
"161","ABCD_1702","a",25,3,1,1000,987.4609375,12.5390625,1,2.77579186638,155.322674005
"162","ABCD_1702","a",26,3,0,1000,1006.26953125,6.26953125,0,3.18958267606,158.512357791
"163","ABCD_1702","a",27,4,0,1000,1046.26953125,46.26953125,1,2.48268213972,160.995136479
"164","ABCD_1702","a",28,4,1,1000,953.73046875,46.26953125,1,2.89635473485,163.891574078
"165","ABCD_1702","a",29,4,0,1000,1023.13476562,23.134765625,1,2.53443996336,166.426118192
"166","ABCD_1702","a",30,4,1,1000,976.865234375,23.134765625,1,3.18957659428,169.615791714
"167","ABCD_1702","a",31,4,0,1000,1011.56738281,11.5673828125,1,2.60329366241,172.219172422
"168","ABCD_1702","a",32,4,1,1000,988.432617188,11.5673828125,1,2.62067234046,174.839928767
"169","ABCD_1702","a",33,4,0,1000,1005.78369141,5.78369140625,1,3.39612742843,178.236134879
"170","ABCD_1702","a",34,4,1,1000,994.216308594,5.78369140625,1,2.82786328165,181.064093188
"171","ABCD_1702","a",35,4,0,1000,997.108154297,2.89184570312,1,3.93125653316,184.995446269
"172","ABCD_1702","a",36,4,1,1000,997.108154297,2.89184570312,1,2.82709659763,187.822639795
"173","ABCD_1702","a",37,4,0,1000,1001.44592285,1.44592285156,0,2.65518604536,190.477921629
"174","ABCD_1702","a",38,5,0,1000,1026.44592285,26.4459228516,1,2.56882024928,193.046812959
"175","ABCD_1702","a",39,5,1,1000,973.554077148,26.4459228516,1,2.63786400386,195.684773511
"176","ABCD_1702","a",40,5,0,1000,986.777038574,13.2229614258,1,3.49981184502,199.184661378
"177","ABCD_1702","a",41,5,1,1000,1013.22296143,13.2229614258,0,2.86205617281,202.046822462
"178","ABCD_1702","a",42,6,0,1000,961.777038574,38.2229614258,1,2.48273269449,204.529634219
"179","ABCD_1702","a",43,6,1,1000,961.777038574,38.2229614258,1,2.93085057454,207.460560056
"180","ABCD_1702","a",44,6,0,1000,980.888519287,19.1114807129,0,3.01711222019,210.477758561
"181","ABCD_1702","a",45,7,0,1000,1044.11148071,44.1114807129,1,2.6551700807,213.133006565
"182","ABCD_1702","a",46,7,1,1000,1044.11148071,44.1114807129,1,2.32752764358,215.460611751
"183","ABCD_1702","a",47,7,0,1000,1022.05574036,22.0557403564,1,2.63787160608,218.098568122
"184","ABCD_1702","a",48,7,1,1000,1022.05574036,22.0557403564,1,2.49997035134,220.598628179
"185","ABCD_1702","a",49,7,0,1000,988.972129822,11.0278701782,1,2.49990915345,223.098638062
"186","ABCD_1702","a",50,7,1,1000,988.972129822,11.0278701782,1,2.46518524713,225.563917197
"187","ABCD_1702","a",51,7,0,1000,994.486064911,5.51393508911,1,2.37937555354,227.943374854
"188","ABCD_1702","a",52,7,1,1000,994.486064911,5.51393508911,1,2.77564666396,230.719115406
"189","ABCD_1702","a",53,7,0,1000,1002.75696754,2.75696754456,1,2.5345376519,233.253751886
"190","ABCD_1702","a",54,7,1,1000,997.243032455,2.75696754456,1,2.50011631399,235.753945363
"191","ABCD_1702","a",55,7,0,1000,1001.37848377,1.37848377228,0,2.98221346277,238.736416161
"192","ABCD_1702","a",56,8,0,1000,1026.37848377,26.3784837723,1,2.31013034009,241.04664609
"193","ABCD_1702","a",57,8,1,1000,973.621516228,26.3784837723,1,3.1380437964,244.184783394
"194","ABCD_1702","a",58,8,0,1000,1013.18924189,13.1892418861,1,2.62059897902,246.805489184
"195","ABCD_1702","a",59,8,1,1000,986.810758114,13.1892418861,1,2.51712742463,249.322715818
"196","ABCD_1702","a",60,8,0,1000,1006.59462094,6.59462094307,1,2.53450382202,251.857330632
"197","ABCD_1702","a",61,8,1,1000,993.405379057,6.59462094307,1,2.49970769459,254.357146658
"198","ABCD_1702","a",62,8,0,1000,1003.29731047,3.29731047153,1,2.48272585249,256.839952714
"199","ABCD_1702","a",63,8,1,1000,996.702689528,3.29731047153,1,3.05168674287,259.891743227
"200","ABCD_1702","a",64,8,0,1000,998.351344764,1.64865523577,1,2.74115348505,262.63299212
"201","ABCD_1702","a",65,8,1,1000,998.351344764,1.64865523577,1,2.89648739362,265.529572641
"202","ABCD_1702","a",66,8,0,1000,999.175672382,0.824327617884,1,2.75854470676,268.288221498
"203","ABCD_1702","a",67,8,1,1000,1000.82432762,0.824327617884,0,2.36195506327,270.650278051
"204","ABCD_1702","a",68,9,0,1000,1005.82432762,5.82432761788,1,2.68962068716,273.340002129
"205","ABCD_1702","a",69,9,1,1000,1005.82432762,5.82432761788,1,2.74126105648,276.081351751
"206","ABCD_1702","a",70,9,0,1000,1002.91216381,2.91216380894,1,3.10326819497,279.184714974
"207","ABCD_1702","r",1,0,0,1765,1265,500,1,2.32380331533,290.874561447
"208","ABCD_1702","r",2,0,1,1293,1793,500,1,2.39628023308,293.270936708
"209","ABCD_1702","r",3,0,0,1377,1627,250,0,2.70689977612,295.977935313
"210","ABCD_1702","r",4,1,0,1326,1616,290,1,2.44809431316,298.426125794
"211","ABCD_1702","r",5,1,1,1397,1687,290,1,2.46543421988,300.891642498
"212","ABCD_1702","r",6,1,0,1128,1273,145,1,2.93102884663,303.822772454
"213","ABCD_1702","r",7,1,1,1014,1159,145,1,2.4481232016,306.270989923
"214","ABCD_1702","r",8,1,0,1262.5,1190,72.5,1,2.36292700727,308.63401804
"215","ABCD_1702","r",9,1,1,1168.5,1096,72.5,1,2.75767197175,311.391782379
"216","ABCD_1702","r",10,1,0,1045.25,1009,36.25,1,2.46532968934,313.857202535
"217","ABCD_1702","r",11,1,1,1237,1273.25,36.25,1,2.43084563309,316.288126471
"218","ABCD_1702","r",12,1,0,1400,1418.125,18.125,1,3.10347649583,319.391695713
"219","ABCD_1702","r",13,1,1,1366,1384.125,18.125,1,2.32748621147,321.719272772
"220","ABCD_1702","r",14,1,0,1196,1205.0625,9.0625,1,3.12056819002,324.839940551
"221","ABCD_1702","r",15,1,1,1198.0625,1189,9.0625,1,2.77587435048,327.615892064
"222","ABCD_1702","r",16,1,0,1187,1191.53125,4.53125,1,3.01672830801,330.632702476
"223","ABCD_1702","r",17,1,1,1346.53125,1342,4.53125,0,2.93104177041,333.563858279
"224","ABCD_1702","r",18,2,0,1374,1418.53125,44.53125,1,2.53461785534,336.098565461
"225","ABCD_1702","r",19,2,1,1078.53125,1034,44.53125,1,2.43100565985,338.52967223
"226","ABCD_1702","r",20,2,0,1371,1393.265625,22.265625,1,2.39644102007,340.926236406
"227","ABCD_1702","r",21,2,1,1336,1358.265625,22.265625,1,2.34464404499,343.270974339
"228","ABCD_1702","r",22,2,0,1323.1328125,1312,11.1328125,0,2.96548933598,346.236560603
"229","ABCD_1702","r",23,3,0,1422.1328125,1371,51.1328125,1,2.41366651336,348.650325565
"230","ABCD_1702","r",24,3,1,1168,1219.1328125,51.1328125,1,2.43092279564,351.081336927
"231","ABCD_1702","r",25,3,0,1005,1030.56640625,25.56640625,1,2.43096992941,353.512401884
"232","ABCD_1702","r",26,3,1,1321,1346.56640625,25.56640625,1,2.37921704722,355.891726122
"233","ABCD_1702","r",27,3,0,1175,1187.78320312,12.783203125,0,2.5860674089,358.477875255
"234","ABCD_1702","r",28,4,0,1265,1317.78320312,52.783203125,1,2.51668725602,360.994653738
"235","ABCD_1702","r",29,4,1,1299,1351.78320312,52.783203125,1,2.29341457574,363.288167903
"236","ABCD_1702","r",30,4,0,1234.39160156,1208,26.3916015625,1,2.96542433699,366.253691069
"237","ABCD_1702","r",31,4,1,1312,1338.39160156,26.3916015625,1,2.70687202801,368.960661165
"238","ABCD_1702","r",32,4,0,1354.19580078,1341,13.1958007812,1,2.53438560748,371.495126976
"239","ABCD_1702","r",33,4,1,1038.19580078,1025,13.1958007812,1,2.44912061304,373.944346798
"240","ABCD_1702","r",34,4,0,1079,1085.59790039,6.59790039062,1,2.82647929725,376.770921123
"241","ABCD_1702","r",35,4,1,1085,1091.59790039,6.59790039062,1,2.43096574819,379.201975437
"242","ABCD_1702","r",36,4,0,1307,1310.2989502,3.29895019531,1,3.15517540225,382.357250429
"243","ABCD_1702","r",37,4,1,1102.2989502,1099,3.29895019531,1,2.60336968462,384.960718562
"244","ABCD_1702","r",38,4,0,1153,1154.6494751,1.64947509766,1,2.36185205317,387.322787659
"245","ABCD_1702","r",39,4,1,1315,1316.6494751,1.64947509766,1,2.51712932519,389.840097156
"246","ABCD_1702","r",40,4,0,1059,1059.82473755,0.824737548828,0,2.75842611211,392.598614495
"247","ABCD_1702","r",41,5,0,1422.82473755,1397,25.8247375488,0,2.87966937939,395.478363318
"248","ABCD_1702","r",42,6,0,1072,1122.82473755,50.8247375488,1,2.96504308559,398.44349877
"249","ABCD_1702","r",43,6,1,1265,1315.82473755,50.8247375488,1,2.39644748195,400.840043561
"250","ABCD_1702","r",44,6,0,1137.41236877,1112,25.4123687744,0,3.13786362375,403.978008294
"251","ABCD_1702","r",45,7,0,1067.41236877,1017,50.4123687744,1,2.44816919504,406.426290002
"252","ABCD_1702","r",46,7,1,1431.41236877,1381,50.4123687744,1,3.06886548249,409.495264196
"253","ABCD_1702","r",47,7,0,1390,1415.20618439,25.2061843872,1,2.44822165037,411.943569851
"254","ABCD_1702","r",48,7,1,1132.20618439,1107,25.2061843872,1,2.4998798849,414.443558448
"255","ABCD_1702","r",49,7,0,1086,1098.60309219,12.6030921936,0,3.22377860811,417.667425242
"256","ABCD_1702","r",50,8,0,1067.60309219,1030,37.6030921936,1,2.44845199767,420.115971127
"257","ABCD_1702","r",51,8,1,1314.60309219,1277,37.6030921936,1,3.56887726594,423.684944181
"258","ABCD_1702","r",52,8,0,1298,1316.8015461,18.8015460968,1,2.58584998537,426.270901357
"259","ABCD_1702","r",53,8,1,1117.8015461,1099,18.8015460968,1,2.48285052892,428.753847674
"260","ABCD_1702","r",54,8,0,1387,1396.40077305,9.4007730484,1,2.32747442803,431.081407627
"261","ABCD_1702","r",55,8,1,1348,1357.40077305,9.4007730484,1,2.58614761233,433.667652928
"262","ABCD_1702","r",56,8,0,1066,1070.70038652,4.7003865242,0,2.48242290397,436.150149954
"263","ABCD_1702","r",57,9,0,1114.70038652,1105,9.7003865242,0,3.03526290382,439.185497622
"264","ABCD_1702","r",58,10,0,1198,1212.70038652,14.7003865242,1,2.67173836195,441.857334053
"265","ABCD_1702","r",59,10,1,1386.70038652,1372,14.7003865242,0,3.0516259251,444.909054246
"266","ABCD_1702","r",60,11,0,1074.70038652,1055,19.7003865242,1,2.53437344392,447.443522717
"267","ABCD_1702","r",61,11,1,1311,1330.70038652,19.7003865242,1,2.63752000335,450.081140789
"268","ABCD_1702","r",62,11,0,1324.85019326,1315,9.8501932621,0,2.56891413671,452.650167819
"269","ABCD_1702","r",63,12,0,1148.85019326,1134,14.8501932621,1,2.39676867581,455.047052429
"270","ABCD_1702","r",64,12,1,1282.85019326,1268,14.8501932621,1,2.96539810933,458.012522379
"271","ABCD_1702","r",65,12,0,1011.42509663,1004,7.42509663105,1,2.56864881919,460.581268507
"272","ABCD_1702","r",66,12,1,1005,1012.42509663,7.42509663105,0,3.15525446535,463.736609637
"273","ABCD_1702","r",67,13,0,1374.42509663,1362,12.4250966311,1,3.48229366621,467.21899263
"274","ABCD_1702","r",68,13,1,1097.42509663,1085,12.4250966311,1,2.87963402906,470.098708763
"275","ABCD_1702","r",69,13,0,1150.21254832,1144,6.21254831553,1,2.62051877559,472.719317244
"276","ABCD_1702","r",70,13,1,1277,1283.21254832,6.21254831553,0,2.98267035628,475.702066664
"277","ABCD_1703","r",1,0,0,1100,1600,500,0,2.47472860721,83.6678560473
"278","ABCD_1703","r",2,1,0,1784,1244,540,1,3.05151512041,86.7195254945
"279","ABCD_1703","r",3,1,1,1139,1679,540,1,2.32749856411,89.047130871
"280","ABCD_1703","r",4,1,0,1071,1341,270,1,2.72398804766,91.7712040645
"281","ABCD_1703","r",5,1,1,1438,1168,270,1,2.32760347593,94.0989170136
"282","ABCD_1703","r",6,1,0,1367,1502,135,1,2.36197653853,96.4609874406
"283","ABCD_1703","r",7,1,1,1215,1080,135,1,2.29302971247,98.7541118018
"284","ABCD_1703","r",8,1,0,1263,1330.5,67.5,1,2.53437515323,101.288593007
"285","ABCD_1703","r",9,1,1,1021,1088.5,67.5,0,2.41368817853,103.702372793
"286","ABCD_1703","r",10,2,0,1438.5,1331,107.5,0,2.43094389081,106.133407532
"287","ABCD_1703","r",11,3,0,1330.5,1183,147.5,1,2.9998604977,109.133365719
"288","ABCD_1703","r",12,3,1,1144,1291.5,147.5,1,2.44822202988,111.581674415
"289","ABCD_1703","r",13,3,0,1139,1212.75,73.75,0,2.51712096142,114.098923095
"290","ABCD_1703","r",14,4,0,1146,1259.75,113.75,1,2.24122722492,116.340237747
"291","ABCD_1703","r",15,4,1,1139.75,1026,113.75,1,2.31029302705,118.650618581
"292","ABCD_1703","r",16,4,0,1245,1301.875,56.875,0,2.58613278718,121.236840695
"293","ABCD_1703","r",17,5,0,1112.875,1031,81.875,1,2.49990021975,123.736851908
"294","ABCD_1703","r",18,5,1,1116.875,1035,81.875,1,2.9139628118,126.650901766
"295","ABCD_1703","r",19,5,0,1357.9375,1317,40.9375,0,2.93070422814,129.581697982
"296","ABCD_1703","r",20,6,0,1215,1280.9375,65.9375,0,2.72398652719,132.305779158
"297","ABCD_1703","r",21,7,0,1228,1318.9375,90.9375,1,3.46544999375,135.771318859
"298","ABCD_1703","r",22,7,1,1255,1345.9375,90.9375,1,2.43093362769,138.202352837
"299","ABCD_1703","r",23,7,0,1386.46875,1341,45.46875,1,2.53434094286,140.736794131
"300","ABCD_1703","r",24,7,1,1064.46875,1019,45.46875,1,2.49994735404,143.236830052
"301","ABCD_1703","r",25,7,0,1252.734375,1230,22.734375,1,2.77577989198,146.01269813
"302","ABCD_1703","r",26,7,1,1061.734375,1039,22.734375,1,2.50052626958,148.513312967
"303","ABCD_1703","r",27,7,0,1112.3671875,1101,11.3671875,0,2.61999421465,151.133416274
"304","ABCD_1703","r",28,8,0,1304.3671875,1268,36.3671875,0,2.36195449184,153.495461614
"305","ABCD_1703","r",29,9,0,1000,1041.3671875,41.3671875,0,2.81015675573,156.305700474
"306","ABCD_1703","r",30,10,0,1006,1052.3671875,46.3671875,1,2.37908742689,158.684889772
"307","ABCD_1703","r",31,10,1,1022,1068.3671875,46.3671875,1,2.3276327448,161.012629329
"308","ABCD_1703","r",32,10,0,1051.18359375,1028,23.18359375,1,2.37898631623,163.391692049
"309","ABCD_1703","r",33,10,1,1084.18359375,1061,23.18359375,1,2.48267491669,165.874454772
"310","ABCD_1703","r",34,10,0,1322,1333.59179688,11.591796875,0,2.56920093311,168.443744272
"311","ABCD_1703","r",35,11,0,1228,1244.59179688,16.591796875,0,3.05161014923,171.495459713
"312","ABCD_1703","r",36,12,0,1202.59179688,1181,21.591796875,1,2.37915964879,173.874698426
"313","ABCD_1703","r",37,12,1,1290,1311.59179688,21.591796875,1,2.43098950464,176.305768895
"314","ABCD_1703","r",38,12,0,1169.79589844,1159,10.7958984375,0,2.37924023322,178.68511442
"315","ABCD_1703","r",39,13,0,1158.79589844,1143,15.7958984375,1,2.37909350873,181.064287373
"316","ABCD_1703","r",40,13,1,1365,1380.79589844,15.7958984375,1,2.55173197617,183.616110197
"317","ABCD_1703","r",41,13,0,1029,1036.89794922,7.89794921875,1,3.24130932981,186.857527099
"318","ABCD_1703","r",42,13,1,1165,1172.89794922,7.89794921875,1,2.53437819416,189.392010966
"319","ABCD_1703","r",43,13,0,1131.94897461,1128,3.94897460938,0,2.46606882139,191.858165313
"320","ABCD_1703","r",44,14,0,1348.94897461,1340,8.94897460938,0,2.56839014726,194.426645928
"321","ABCD_1703","r",45,15,0,1036,1049.94897461,13.9489746094,0,2.63794287704,197.064689915
"322","ABCD_1703","r",46,16,0,1263,1281.94897461,18.9489746094,1,2.46495774449,199.529722542
"323","ABCD_1703","r",47,16,1,1265.94897461,1247,18.9489746094,0,2.89690780038,202.426724611
"324","ABCD_1703","a",1,0,0,1000,1500,500,1,2.43521904712,215.633510733
"325","ABCD_1703","a",2,0,1,1000,1500,500,1,2.48274105674,218.116370386
"326","ABCD_1703","a",3,0,0,1000,750,250,0,2.75923879639,220.875698889
"327","ABCD_1703","a",4,1,0,1000,1290,290,0,2.5854307143,223.461236796
"328","ABCD_1703","a",5,2,0,1000,1330,330,1,2.56884856626,226.030188374
"329","ABCD_1703","a",6,2,1,1000,670,330,1,2.51694420782,228.547245856
"330","ABCD_1703","a",7,2,0,1000,835,165,1,2.70690262701,231.254262517
"331","ABCD_1703","a",8,2,1,1000,1165,165,1,2.46545037386,233.719815903
"332","ABCD_1703","a",9,2,0,1000,917.5,82.5,1,3.08611055044,236.806013119
"333","ABCD_1703","a",10,2,1,1000,1082.5,82.5,1,2.55151569059,239.357766762
"334","ABCD_1703","a",11,2,0,1000,1041.25,41.25,1,2.65504730344,242.012921258
"335","ABCD_1703","a",12,2,1,1000,958.75,41.25,1,2.81021111221,244.823239183
"336","ABCD_1703","a",13,2,0,1000,979.375,20.625,0,3.99995818732,248.823304943
"337","ABCD_1703","a",14,3,0,1000,939.375,60.625,1,2.58605714425,251.4094708
"338","ABCD_1703","a",15,3,1,1000,1060.625,60.625,0,2.74128557261,254.150872308
"339","ABCD_1703","a",16,4,0,1000,899.375,100.625,1,3.91369216974,258.064680032
"340","ABCD_1703","a",17,4,1,1000,899.375,100.625,1,2.517103096,260.581861052
"341","ABCD_1703","a",18,4,0,1000,949.6875,50.3125,1,2.60341776834,263.185382972
"342","ABCD_1703","a",19,4,1,1000,1050.3125,50.3125,1,2.775720594,265.961207337
"343","ABCD_1703","a",20,4,0,1000,1025.15625,25.15625,1,2.51717303721,268.478505432
"344","ABCD_1703","a",21,4,1,1000,974.84375,25.15625,1,3.1378161086,271.616442798
"345","ABCD_1703","a",22,4,0,1000,1012.578125,12.578125,1,2.98260098427,274.599133109
"346","ABCD_1703","a",23,4,1,1000,1012.578125,12.578125,1,2.4308990372,277.030134017
"347","ABCD_1703","a",24,4,0,1000,1006.2890625,6.2890625,1,2.39650164723,279.426739816
"348","ABCD_1703","a",25,4,1,1000,993.7109375,6.2890625,0,3.36194232815,282.788781354
"349","ABCD_1703","a",26,5,0,1000,1031.2890625,31.2890625,1,2.44818059732,285.237063062
"350","ABCD_1703","a",27,5,1,1000,968.7109375,31.2890625,1,2.79302230022,288.030189514
"351","ABCD_1703","a",28,5,0,1000,984.35546875,15.64453125,1,2.63774597734,290.668038883
"352","ABCD_1703","a",29,5,1,1000,1015.64453125,15.64453125,0,2.43170184063,293.099821308
"353","ABCD_1703","a",30,6,0,1000,959.35546875,40.64453125,1,2.75786353938,295.857812186
"354","ABCD_1703","a",31,6,1,1000,1040.64453125,40.64453125,1,2.43082263404,298.288722626
"355","ABCD_1703","a",32,6,0,1000,1020.32226562,20.322265625,1,2.4825331337,300.771380058
"356","ABCD_1703","a",33,6,1,1000,979.677734375,20.322265625,1,2.67251740073,303.444018715
"357","ABCD_1703","a",34,6,0,1000,1010.16113281,10.1611328125,1,2.93089922726,306.375023235
"358","ABCD_1703","a",35,6,1,1000,1010.16113281,10.1611328125,1,2.56889912159,308.944023467
"359","ABCD_1703","a",36,6,0,1000,1005.08056641,5.08056640625,0,2.44814828752,311.392272485
"360","ABCD_1703","a",37,7,0,1000,969.919433594,30.0805664062,1,2.74123881843,314.133611654
"361","ABCD_1703","a",38,7,1,1000,969.919433594,30.0805664062,1,2.74129355503,316.87500974
"362","ABCD_1703","a",39,7,0,1000,1015.0402832,15.0402832031,0,3.20683857759,320.081947528
"363","ABCD_1703","a",40,8,0,1000,959.959716797,40.0402832031,1,2.43077283894,322.512800571
"364","ABCD_1703","a",41,8,1,1000,959.959716797,40.0402832031,1,2.55179393496,325.064697898
"365","ABCD_1703","a",42,8,0,1000,1020.0201416,20.0201416016,1,2.36193662642,327.426738296
"366","ABCD_1703","a",43,8,1,1000,979.979858398,20.0201416016,1,2.81030081941,330.237147448
"367","ABCD_1703","a",44,8,0,1000,989.989929199,10.0100708008,1,2.49984738372,332.737099743
"368","ABCD_1703","a",45,8,1,1000,989.989929199,10.0100708008,1,2.32741950014,335.064624916
"369","ABCD_1703","a",46,8,0,1000,994.9949646,5.00503540039,1,2.55173691767,337.616464084
"370","ABCD_1703","a",47,8,1,1000,994.9949646,5.00503540039,1,2.58606056529,340.202613596
"371","ABCD_1703","a",48,8,0,1000,1002.5025177,2.5025177002,1,2.499953816,342.702674225
"372","ABCD_1703","a",49,8,1,1000,997.4974823,2.5025177002,0,2.48260877663,345.185386773
"373","ABCD_1703","a",50,9,0,1000,1007.5025177,7.5025177002,0,2.31023486942,347.495728075
"374","ABCD_1703","a",51,10,0,1000,1012.5025177,12.5025177002,1,2.49989527825,349.995723703
"375","ABCD_1703","a",52,10,1,1000,1012.5025177,12.5025177002,1,2.48258216856,352.478403942
"376","ABCD_1703","a",53,10,0,1000,993.74874115,6.2512588501,0,2.44824559703,354.926757491
"377","ABCD_1703","a",54,11,0,1000,988.74874115,11.2512588501,1,2.51709891473,357.443949534
"378","ABCD_1703","a",55,11,1,1000,988.74874115,11.2512588501,1,2.55162402344,359.995677709
"379","ABCD_1703","a",56,11,0,1000,1005.62562943,5.62562942505,0,2.36198756187,362.357763721
"380","ABCD_1703","a",57,12,0,1000,1010.62562943,10.625629425,1,2.5516282047,364.909479732
"381","ABCD_1703","a",58,12,1,1000,989.374370575,10.625629425,1,2.49992720793,367.40950539
"382","ABCD_1703","a",59,12,0,1000,1005.31281471,5.31281471252,0,2.55157042719,369.961177688
"383","ABCD_1703","a",60,13,0,1000,1010.31281471,10.3128147125,1,2.87894431349,372.840235656
"384","ABCD_1703","a",61,13,1,1000,989.687185287,10.3128147125,0,3.53470015178,376.375044901
"385","ABCD_1703","a",62,14,0,1000,984.687185287,15.3128147125,1,2.41356996268,378.788841032
"386","ABCD_1703","a",63,14,1,1000,1015.31281471,15.3128147125,1,2.67231517941,381.461258083
"387","ABCD_1703","a",64,14,0,1000,992.343592644,7.65640735626,1,2.67230377595,384.133672092
"388","ABCD_1703","a",65,14,1,1000,1007.65640736,7.65640735626,1,2.48261675905,386.616375517
"389","ABCD_1703","a",66,14,0,1000,1003.82820368,3.82820367813,0,2.49994165231,389.116426263
"390","ABCD_1703","a",67,15,0,1000,1008.82820368,8.82820367813,1,2.4481726149,391.564693526
"391","ABCD_1703","a",68,15,1,1000,991.171796322,8.82820367813,1,2.65564826567,394.220436061
"392","ABCD_1703","a",69,15,0,1000,995.585898161,4.41410183907,0,2.3441639574,396.56470493
"393","ABCD_1703","a",70,16,0,1000,1009.41410184,9.41410183907,1,2.63772735169,399.202539094
"394","ABCD_1704","r",1,0,0,1788,1288,500,1,3.37290883064,57.1572039127
"395","ABCD_1704","r",2,0,1,1110,1610,500,1,3.0730381012,60.2305669785
"396","ABCD_1704","r",3,0,0,1529,1279,250,1,2.63857102394,62.8693418503
"397","ABCD_1704","r",4,0,1,1369,1619,250,1,2.0374519825,64.9069769382
"398","ABCD_1704","r",5,0,0,1504,1379,125,1,2.18785095215,67.0951459408
"399","ABCD_1704","r",6,0,1,1181,1056,125,1,2.37169885635,69.4671227932
"400","ABCD_1704","r",7,0,0,1206.5,1144,62.5,1,2.20394206047,71.6712419987
"401","ABCD_1704","r",8,0,1,1092,1154.5,62.5,0,2.17121505737,73.8426458836
"402","ABCD_1704","r",9,1,0,1137,1239.5,102.5,1,2.62203502655,76.464854002
"403","ABCD_1704","r",10,1,1,1038,1140.5,102.5,1,2.38828706741,78.8534369469
"404","ABCD_1704","r",11,1,0,1123,1174.25,51.25,1,2.50506186485,81.3588957787
"405","ABCD_1704","r",12,1,1,1257.25,1206,51.25,1,2.68855595589,84.0476498604
"406","ABCD_1704","r",13,1,0,1316,1341.625,25.625,1,2.48853611946,86.5365498066
"407","ABCD_1704","r",14,1,1,1376.625,1351,25.625,0,3.17295408249,89.7098529339
"408","ABCD_1704","r",15,2,0,1288.625,1223,65.625,1,2.72206902504,92.4321298599
"409","ABCD_1704","r",16,2,1,1021,1086.625,65.625,0,2.48845791817,94.9207749367
"410","ABCD_1704","r",17,3,0,1371.625,1266,105.625,1,3.03971815109,97.9608387947
"411","ABCD_1704","r",18,3,1,1197.625,1092,105.625,1,2.88906598091,100.850251913
"412","ABCD_1704","r",19,3,0,1398,1450.8125,52.8125,1,2.30449104309,103.154944897
"413","ABCD_1704","r",20,3,1,1249.8125,1197,52.8125,1,2.63872504234,105.793846846
"414","ABCD_1704","r",21,3,0,1331.40625,1305,26.40625,1,3.35705590248,109.151236773
"415","ABCD_1704","r",22,3,1,1173.40625,1147,26.40625,0,3.87444806099,113.025881767
"416","ABCD_1704","r",23,4,0,1068,1134.40625,66.40625,0,2.82254695892,115.848788977
"417","ABCD_1704","r",24,5,0,1072,1163.40625,91.40625,1,3.42349791527,119.272492886
"418","ABCD_1704","r",25,5,1,1025,1116.40625,91.40625,1,3.07357597351,122.346278906
"419","ABCD_1704","r",26,5,0,1053,1098.703125,45.703125,1,2.18732094765,124.53396678
"420","ABCD_1704","r",27,5,1,1209.703125,1164,45.703125,0,2.03724908829,126.571612835
"421","ABCD_1704","r",28,6,0,1165,1235.703125,70.703125,1,2.53812789917,129.110084772
"422","ABCD_1704","r",29,6,1,1309.703125,1239,70.703125,0,2.63868618011,131.748925924
"423","ABCD_1704","r",30,7,0,1166,1261.703125,95.703125,1,2.62224006653,134.371523857
"424","ABCD_1704","r",31,7,1,1303.703125,1208,95.703125,1,2.07065320015,136.442388773
"425","ABCD_1704","r",32,7,0,1291,1338.8515625,47.8515625,1,2.2712790966,138.713835001
"426","ABCD_1704","r",33,7,1,1165,1212.8515625,47.8515625,1,2.45513892174,141.169335842
"427","ABCD_1704","r",34,7,0,1063.92578125,1040,23.92578125,1,2.20467591286,143.374444962
"428","ABCD_1704","r",35,7,1,1350,1373.92578125,23.92578125,1,2.10364603996,145.478274822
"429","ABCD_1704","r",36,7,0,1409.96289062,1398,11.962890625,0,2.07084488869,147.549290895
"430","ABCD_1704","r",37,8,0,1318,1354.96289062,36.962890625,1,2.53856801987,150.088054895
"431","ABCD_1704","r",38,8,1,1174.96289062,1138,36.962890625,1,2.12101197243,152.20936799
"432","ABCD_1704","r",39,8,0,1092.48144531,1074,18.4814453125,1,2.00377893448,154.213339806
"433","ABCD_1704","r",40,8,1,1177.48144531,1159,18.4814453125,1,2.10444784164,156.317896843
"434","ABCD_1704","r",41,8,0,1275,1284.24072266,9.24072265625,1,2.7891330719,159.107202768
"435","ABCD_1704","r",42,8,1,1085,1094.24072266,9.24072265625,0,2.23792290688,161.345286846
"436","ABCD_1704","r",43,9,0,1341.24072266,1327,14.2407226562,0,2.27135491371,163.616966963
"437","ABCD_1704","r",44,10,0,1078.24072266,1059,19.2407226562,0,3.39021897316,167.007525921
"438","ABCD_1704","r",45,11,0,1289,1313.24072266,24.2407226562,1,2.38792610168,169.395656824
"439","ABCD_1704","r",46,11,1,1122,1146.24072266,24.2407226562,0,2.42171096802,171.817503929
"440","ABCD_1704","r",47,12,0,1013,1042.24072266,29.2407226562,1,2.38828206062,174.205891848
"441","ABCD_1704","r",48,12,1,1176,1205.24072266,29.2407226562,1,2.27149510384,176.477696896
"442","ABCD_1704","r",49,12,0,1142,1156.62036133,14.6203613281,1,3.1062579155,179.584326982
"443","ABCD_1704","r",50,12,1,1066.62036133,1052,14.6203613281,1,2.32101106644,181.905546904
"444","ABCD_1704","r",51,12,0,1152.31018066,1145,7.31018066406,0,2.45510983467,184.36082387
"445","ABCD_1704","r",52,13,0,1126.31018066,1114,12.3101806641,1,2.43835186958,186.799342871
"446","ABCD_1704","r",53,13,1,1009,1021.31018066,12.3101806641,0,2.83929491043,189.63880682
"447","ABCD_1704","r",54,14,0,1291.31018066,1274,17.3101806641,0,2.72237610817,192.361363888
"448","ABCD_1704","r",55,15,0,1030,1052.31018066,22.3101806641,0,3.17314004898,195.534720898
"449","ABCD_1704","r",56,16,0,1231,1258.31018066,27.3101806641,1,3.18999195099,198.724891901
"450","ABCD_1704","r",57,16,1,1219,1246.31018066,27.3101806641,1,2.43826389313,201.163273811
"451","ABCD_1704","r",58,16,0,1254.65509033,1241,13.655090332,0,2.52200603485,203.685534954
"452","ABCD_1704","a",1,0,0,1000,500,500,1,4.307929039,213.506564856
"453","ABCD_1704","a",2,0,1,1000,1500,500,1,2.45462393761,215.961619854
"454","ABCD_1704","a",3,0,0,1000,1250,250,1,2.43801498413,218.399823904
"455","ABCD_1704","a",4,0,1,1000,1250,250,1,2.32164406776,220.721646786
"456","ABCD_1704","a",5,0,0,1000,875,125,1,2.63877701759,223.360780954
"457","ABCD_1704","a",6,0,1,1000,875,125,1,2.17084002495,225.531820774
"458","ABCD_1704","a",7,0,0,1000,937.5,62.5,1,2.28805589676,227.820053816
"459","ABCD_1704","a",8,0,1,1000,1062.5,62.5,1,2.28850293159,230.109028816
"460","ABCD_1704","a",9,0,0,1000,1031.25,31.25,1,2.37061214447,232.479836941
"461","ABCD_1704","a",10,0,1,1000,968.75,31.25,1,2.62223601341,235.102393866
"462","ABCD_1704","a",11,0,0,1000,984.375,15.625,1,2.35469388962,237.457453966
"463","ABCD_1704","a",12,0,1,1000,1015.625,15.625,1,2.52164196968,239.979464769
"464","ABCD_1704","a",13,0,0,1000,992.1875,7.8125,1,2.67204594612,242.65188098
"465","ABCD_1704","a",14,0,1,1000,1007.8125,7.8125,1,2.5549030304,245.206973791
"466","ABCD_1704","a",15,0,0,1000,996.09375,3.90625,0,2.12094402313,247.328081846
"467","ABCD_1704","a",16,1,0,1000,956.09375,43.90625,1,2.53854584694,249.866795778
"468","ABCD_1704","a",17,1,1,1000,1043.90625,43.90625,1,2.22170996666,252.088746786
"469","ABCD_1704","a",18,1,0,1000,1021.953125,21.953125,1,2.23736405373,254.326282978
"470","ABCD_1704","a",19,1,1,1000,978.046875,21.953125,1,2.20464706421,256.531090975
"471","ABCD_1704","a",20,1,0,1000,989.0234375,10.9765625,1,2.25458312035,258.785807848
"472","ABCD_1704","a",21,1,1,1000,989.0234375,10.9765625,1,2.10440015793,260.890384912
"473","ABCD_1704","a",22,1,0,1000,994.51171875,5.48828125,1,2.22130799294,263.111867905
"474","ABCD_1704","a",23,1,1,1000,1005.48828125,5.48828125,0,2.4382481575,265.550282001
"475","ABCD_1704","a",24,2,0,1000,954.51171875,45.48828125,1,2.52187204361,268.072467804
"476","ABCD_1704","a",25,2,1,1000,954.51171875,45.48828125,1,2.57174992561,270.644419909
"477","ABCD_1704","a",26,2,0,1000,1022.74414062,22.744140625,1,2.3213429451,272.965935946
"478","ABCD_1704","a",27,2,1,1000,1022.74414062,22.744140625,1,2.2714471817,275.237566948
"479","ABCD_1704","a",28,2,0,1000,1011.37207031,11.3720703125,1,2.22130584717,277.459213972
"480","ABCD_1704","a",29,2,1,1000,988.627929688,11.3720703125,1,2.28777313232,279.747339964
"481","ABCD_1704","a",30,2,0,1000,994.313964844,5.68603515625,0,2.48842191696,282.236005783
"482","ABCD_1704","a",31,3,0,1000,954.313964844,45.6860351562,1,2.22099709511,284.457178831
"483","ABCD_1704","a",32,3,1,1000,954.313964844,45.6860351562,1,2.12105298042,286.57859993
"484","ABCD_1704","a",33,3,0,1000,1022.84301758,22.8430175781,1,2.20424604416,288.783246994
"485","ABCD_1704","a",34,3,1,1000,1022.84301758,22.8430175781,1,2.43807792664,291.221538782
"486","ABCD_1704","a",35,3,0,1000,1011.42150879,11.4215087891,1,2.10433197021,293.326043844
"487","ABCD_1704","a",36,3,1,1000,1011.42150879,11.4215087891,0,2.73902893066,296.065408945
"488","ABCD_1704","a",37,4,0,1000,1051.42150879,51.4215087891,1,2.27099990845,298.336619854
"489","ABCD_1704","a",38,4,1,1000,948.578491211,51.4215087891,1,2.23799300194,300.574935913
"490","ABCD_1704","a",39,4,0,1000,1025.71075439,25.7107543945,1,2.20419979095,302.779358864
"491","ABCD_1704","a",40,4,1,1000,1025.71075439,25.7107543945,1,2.33829808235,305.118020773
"492","ABCD_1704","a",41,4,0,1000,1012.8553772,12.8553771973,1,2.43808197975,307.556417942
"493","ABCD_1704","a",42,4,1,1000,987.144622803,12.8553771973,1,2.33800601959,309.894816875
"494","ABCD_1704","a",43,4,0,1000,1006.4276886,6.42768859863,0,2.63857007027,312.533736944
"495","ABCD_1704","a",44,5,0,1000,968.572311401,31.4276885986,1,2.37131404877,314.905256987
"496","ABCD_1704","a",45,5,1,1000,1031.4276886,31.4276885986,1,2.70551609993,317.610919952
"497","ABCD_1704","a",46,5,0,1000,1015.7138443,15.7138442993,1,2.25473999977,319.866024971
"498","ABCD_1704","a",47,5,1,1000,984.286155701,15.7138442993,1,2.35512018204,322.221625805
"499","ABCD_1704","a",48,5,0,1000,1007.85692215,7.85692214966,1,3.03885102272,325.2608428
"500","ABCD_1704","a",49,5,1,1000,1007.85692215,7.85692214966,1,2.35444402695,327.615496874
"501","ABCD_1704","a",50,5,0,1000,1003.92846107,3.92846107483,1,2.35493898392,329.970600843
"502","ABCD_1704","a",51,5,1,1000,1003.92846107,3.92846107483,1,2.22165107727,332.192778826
"503","ABCD_1704","a",52,5,0,1000,1001.96423054,1.96423053741,1,2.17028903961,334.363264799
"504","ABCD_1704","a",53,5,1,1000,1001.96423054,1.96423053741,1,2.18782782555,336.551265955
"505","ABCD_1704","a",54,5,0,1000,1000.98211527,0.982115268707,1,2.32143211365,338.872868776
"506","ABCD_1704","a",55,5,1,1000,999.017884731,0.982115268707,0,2.27121710777,341.144269943
"507","ABCD_1704","a",56,6,0,1000,974.017884731,25.9821152687,1,2.42171597481,343.566252947
"508","ABCD_1704","a",57,6,1,1000,1025.98211527,25.9821152687,1,2.75561499596,346.32207489
"509","ABCD_1704","a",58,6,0,1000,1012.99105763,12.9910576344,1,2.58852100372,348.910762787
"510","ABCD_1704","a",59,6,1,1000,987.008942366,12.9910576344,1,2.57198190689,351.482909918
"511","ABCD_1704","a",60,6,0,1000,993.504471183,6.49552881718,1,2.32152700424,353.8046
"512","ABCD_1704","a",61,6,1,1000,993.504471183,6.49552881718,1,2.57209897041,356.377029896
"513","ABCD_1704","a",62,6,0,1000,1003.24776441,3.24776440859,0,2.58825302124,358.965429783
"514","ABCD_1704","a",63,7,0,1000,971.752235591,28.2477644086,1,2.42188596725,361.387667894
"515","ABCD_1704","a",64,7,1,1000,1028.24776441,28.2477644086,1,2.43801903725,363.825829983
"516","ABCD_1704","a",65,7,0,1000,985.876117796,14.1238822043,1,2.33827090263,366.164272785
"517","ABCD_1704","a",66,7,1,1000,985.876117796,14.1238822043,1,2.27125716209,368.435633898
"518","ABCD_1704","a",67,7,0,1000,992.938058898,7.06194110215,1,3.05649495125,371.492298841
"519","ABCD_1704","a",68,7,1,1000,1007.0619411,7.06194110215,1,2.25457501411,373.747052908
"520","ABCD_1704","a",69,7,0,1000,996.469029449,3.53097055107,0,2.05424118042,375.801643848
"521","ABCD_1704","a",70,8,0,1000,1028.53097055,28.5309705511,1,2.55506515503,378.357117891
"522","ABCD_1705","r",1,0,0,1356,1856,500,1,2.41846548579,97.2939413867
"523","ABCD_1705","r",2,0,1,1500,1000,500,1,2.60336665653,99.8974403223
"524","ABCD_1705","r",3,0,0,1088,1338,250,0,3.75849551467,103.65604645
"525","ABCD_1705","r",4,1,0,1002,1292,290,1,2.46539987836,106.121551999
"526","ABCD_1705","r",5,1,1,1368,1658,290,1,2.56885662156,108.690502129
"527","ABCD_1705","r",6,1,0,1256,1401,145,0,2.75855139121,111.44915387
"528","ABCD_1705","r",7,2,0,1364,1179,185,1,2.70685266839,114.156111829
"529","ABCD_1705","r",8,2,1,1388,1573,185,1,2.6377246465,116.793942907
"530","ABCD_1705","r",9,2,0,1279.5,1187,92.5,NA,0,121.380122016
"531","ABCD_1705","r",10,2,0,1272.5,1180,92.5,1,2.48273110841,123.862942451
"532","ABCD_1705","r",11,2,1,1242,1334.5,92.5,0,2.81030789114,126.673336628
"533","ABCD_1705","r",12,3,0,1224.5,1092,132.5,1,2.4652976281,129.138720921
"534","ABCD_1705","r",13,3,1,1207.5,1075,132.5,1,2.41374942983,131.552550175
"535","ABCD_1705","r",14,3,0,1293,1359.25,66.25,1,2.63786832902,134.190502889
"536","ABCD_1705","r",15,3,1,1398,1464.25,66.25,1,2.49990307131,136.69050555
"537","ABCD_1705","r",16,3,0,1016,1049.125,33.125,0,2.58703132127,139.277630379
"538","ABCD_1705","r",17,4,0,1085.125,1012,73.125,1,2.80930857534,142.087037023
"539","ABCD_1705","r",18,4,1,1336.125,1263,73.125,1,2.39650942679,144.483623993
"540","ABCD_1705","r",19,4,0,1233.5625,1197,36.5625,1,2.29263798084,146.776382849
"541","ABCD_1705","r",20,4,1,1237,1273.5625,36.5625,0,2.39680629466,149.173286833
"542","ABCD_1705","r",21,5,0,1144.5625,1083,61.5625,0,2.51713509199,151.690529117
"543","ABCD_1705","r",22,6,0,1113,1199.5625,86.5625,0,2.46523833054,154.155856393
"544","ABCD_1705","r",23,7,0,1338.5625,1227,111.5625,1,2.25871636004,156.41466132
"545","ABCD_1705","r",24,7,1,1469.5625,1358,111.5625,1,2.20687167401,158.62162194
"546","ABCD_1705","r",25,7,0,1318.78125,1263,55.78125,0,2.41459632051,161.036297324
"547","ABCD_1705","r",26,8,0,1321,1401.78125,80.78125,0,2.32655085905,163.362934849
"548","ABCD_1705","r",27,9,0,1017,1102.78125,85.78125,0,2.55165767067,165.914707313
"549","ABCD_1705","r",28,10,0,1355.78125,1265,90.78125,1,2.51688117683,168.431671355
"550","ABCD_1705","r",29,10,1,1235.78125,1145,90.78125,1,2.63808765394,171.069859358
"551","ABCD_1705","r",30,10,0,1069,1114.390625,45.390625,0,2.43098791242,173.500944199
"552","ABCD_1705","r",31,11,0,1164.390625,1114,50.390625,0,2.5688912118,176.06999962
"553","ABCD_1705","r",32,12,0,1113.390625,1058,55.390625,1,2.7412422077,178.811344458
"554","ABCD_1705","r",33,12,1,1219.390625,1164,55.390625,1,2.43090998936,181.242349856
"555","ABCD_1705","r",34,12,0,1087.6953125,1060,27.6953125,1,2.56883267447,183.811288201
"556","ABCD_1705","r",35,12,1,1312,1339.6953125,27.6953125,1,2.37919530181,186.190589174
"557","ABCD_1705","r",36,12,0,1103.84765625,1090,13.84765625,1,2.46544777254,188.656126653
"558","ABCD_1705","r",37,12,1,1209,1222.84765625,13.84765625,1,2.39647521666,191.052698039
"559","ABCD_1705","r",38,12,0,1084,1090.92382812,6.923828125,0,2.72403375399,193.776821879
"560","ABCD_1705","r",39,13,0,1013.92382812,1002,11.923828125,1,2.37922076935,196.156136536
"561","ABCD_1705","r",40,13,1,1069.92382812,1058,11.923828125,1,2.32750494146,198.483734605
"562","ABCD_1705","r",41,13,0,1084.96191406,1079,5.9619140625,0,2.51709061883,201.000938118
"563","ABCD_1705","r",42,14,0,1013,1023.96191406,10.9619140625,0,2.27577923065,203.276802113
"564","ABCD_1705","r",43,15,0,1323.96191406,1308,15.9619140625,1,2.44822449445,205.725106051
"565","ABCD_1705","r",44,15,1,1033,1048.96191406,15.9619140625,0,2.46538961532,208.190586894
"566","ABCD_1705","r",45,16,0,1386,1406.96191406,20.9619140625,1,2.37923179261,210.569919416
"567","ABCD_1705","r",46,16,1,1412.96191406,1392,20.9619140625,0,2.44818838376,213.018197126
"568","ABCD_1705","a",1,0,0,1000,500,500,1,2.62026569865,234.483808347
"569","ABCD_1705","a",2,0,1,1000,1500,500,1,2.58588756272,237.069787517
"570","ABCD_1705","a",3,0,0,1000,1250,250,1,2.58628059905,239.656156682
"571","ABCD_1705","a",4,0,1,1000,750,250,1,2.56885662156,242.225097689
"572","ABCD_1705","a",5,0,0,1000,1125,125,1,2.55151170746,244.776701764
"573","ABCD_1705","a",6,0,1,1000,875,125,1,2.3965310932,247.173329786
"574","ABCD_1705","a",7,0,0,1000,1062.5,62.5,1,2.48267523187,249.656101186
"575","ABCD_1705","a",8,0,1,1000,937.5,62.5,1,2.29304242056,251.94922381
"576","ABCD_1705","a",9,0,0,1000,1031.25,31.25,1,2.74125589175,254.690569409
"577","ABCD_1705","a",10,0,1,1000,968.75,31.25,1,2.51716778167,257.207835259
"578","ABCD_1705","a",11,0,0,1000,1015.625,15.625,0,2.43096624601,259.638898814
"579","ABCD_1705","a",12,1,0,1000,944.375,55.625,1,2.53438611829,262.173516041
"580","ABCD_1705","a",13,1,1,1000,944.375,55.625,1,2.36179109016,264.53540672
"581","ABCD_1705","a",14,1,0,1000,1027.8125,27.8125,1,2.46552341493,267.001018321
"582","ABCD_1705","a",15,1,1,1000,972.1875,27.8125,1,2.4485905428,269.44969705
"583","ABCD_1705","a",16,1,0,1000,986.09375,13.90625,1,2.41324920176,271.863031397
"584","ABCD_1705","a",17,1,1,1000,1013.90625,13.90625,0,2.51712558918,274.380253915
"585","ABCD_1705","a",18,2,0,1000,946.09375,53.90625,1,2.36229701992,276.74263646
"586","ABCD_1705","a",19,2,1,1000,946.09375,53.90625,1,2.51684544625,279.259585677
"587","ABCD_1705","a",20,2,0,1000,1026.953125,26.953125,1,2.32731678577,281.586979626
"588","ABCD_1705","a",21,2,1,1000,973.046875,26.953125,1,2.62162194009,284.208685571
"589","ABCD_1705","a",22,2,0,1000,1013.4765625,13.4765625,0,2.37838756272,286.587154098
"590","ABCD_1705","a",23,3,0,1000,1053.4765625,53.4765625,1,2.36199635092,288.949252319
"591","ABCD_1705","a",24,3,1,1000,946.5234375,53.4765625,1,2.37987532309,291.329221149
"592","ABCD_1705","a",25,3,0,1000,973.26171875,26.73828125,1,2.44726128934,293.776567584
"593","ABCD_1705","a",26,3,1,1000,973.26171875,26.73828125,1,2.44840390755,296.225073362
"594","ABCD_1705","a",27,3,0,1000,1013.36914062,13.369140625,1,2.55136270336,298.776536415
"595","ABCD_1705","a",28,3,1,1000,986.630859375,13.369140625,1,2.34504485328,301.121677437
"596","ABCD_1705","a",29,3,0,1000,1006.68457031,6.6845703125,1,2.37916337236,303.500921013
"597","ABCD_1705","a",30,3,1,1000,1006.68457031,6.6845703125,1,2.37984225331,305.880896305
"598","ABCD_1705","a",31,3,0,1000,996.657714844,3.34228515625,0,2.6199513456,308.50094724
"599","ABCD_1705","a",32,4,0,1000,1043.34228516,43.3422851562,1,2.44821651209,310.949252319
"600","ABCD_1705","a",33,4,1,1000,956.657714844,43.3422851562,1,2.3112513304,313.260606279
"601","ABCD_1705","a",34,4,0,1000,1021.67114258,21.6711425781,1,2.39544131063,315.656144519
"602","ABCD_1705","a",35,4,1,1000,978.328857422,21.6711425781,1,2.60339364452,318.259632431
"603","ABCD_1705","a",36,4,0,1000,989.164428711,10.8355712891,1,2.56857685875,320.828281131
"604","ABCD_1705","a",37,4,1,1000,1010.83557129,10.8355712891,1,2.46523566976,323.293609929
"605","ABCD_1705","a",38,4,0,1000,994.582214355,5.41778564453,1,2.53484795499,325.828544549
"606","ABCD_1705","a",39,4,1,1000,994.582214355,5.41778564453,1,2.44821765243,328.276837844
"607","ABCD_1705","a",40,4,0,1000,1002.70889282,2.70889282227,0,2.3790645431,330.65598069
"608","ABCD_1705","a",41,5,0,1000,1027.70889282,27.7088928223,1,2.41387144595,333.069947164
"609","ABCD_1705","a",42,5,1,1000,1027.70889282,27.7088928223,0,2.32735555725,335.397378364
"610","ABCD_1705","a",43,6,0,1000,1052.70889282,52.7088928223,1,2.86217956515,338.259650677
"611","ABCD_1705","a",44,6,1,1000,1052.70889282,52.7088928223,0,2.36191576707,340.62165501
"612","ABCD_1705","a",45,7,0,1000,1077.70889282,77.7088928223,1,2.65507032081,343.276829101
"613","ABCD_1705","a",46,7,1,1000,1077.70889282,77.7088928223,1,2.31025733617,345.587165121
"614","ABCD_1705","a",47,7,0,1000,1038.85444641,38.8544464111,0,2.39652539152,347.983774517
"615","ABCD_1705","a",48,8,0,1000,936.145553589,63.8544464111,1,2.32747985404,350.311337996
"616","ABCD_1705","a",49,8,1,1000,936.145553589,63.8544464111,1,2.82749581876,353.138922381
"617","ABCD_1705","a",50,8,0,1000,968.072776794,31.9272232056,1,2.60332674472,355.742336172
"618","ABCD_1705","a",51,8,1,1000,1031.92722321,31.9272232056,0,3.17234111297,358.914760529
"619","ABCD_1705","a",52,9,0,1000,963.072776794,36.9272232056,1,2.48268055345,361.397528508
"620","ABCD_1705","a",53,9,1,1000,963.072776794,36.9272232056,1,3.06891515889,364.466523491
"621","ABCD_1705","a",54,9,0,1000,981.536388397,18.4636116028,0,2.49984947544,366.966469135
"622","ABCD_1705","a",55,10,0,1000,976.536388397,23.4636116028,1,2.62059107496,369.587155238
"623","ABCD_1705","a",56,10,1,1000,1023.4636116,23.4636116028,1,2.3620412042,371.949279307
"624","ABCD_1705","a",57,10,0,1000,1011.7318058,11.7318058014,0,2.93092177284,374.880286225
"625","ABCD_1705","a",58,11,0,1000,983.268194199,16.7318058014,1,2.58612019158,377.46648586
"626","ABCD_1705","a",59,11,1,1000,1016.7318058,16.7318058014,1,2.24126615478,379.707845522
"627","ABCD_1705","a",60,11,0,1000,1008.3659029,8.3659029007,0,2.32753230956,382.03547362
"628","ABCD_1705","a",61,12,0,1000,986.634097099,13.3659029007,0,2.29302645583,384.328597005
"629","ABCD_1705","a",62,13,0,1000,981.634097099,18.3659029007,1,2.44816101566,386.776854569
"630","ABCD_1705","a",63,13,1,1000,981.634097099,18.3659029007,1,2.53439828189,389.311415159
"631","ABCD_1705","a",64,13,0,1000,990.81704855,9.18295145035,1,2.3618560894,391.673365516
"632","ABCD_1705","a",65,13,1,1000,1009.18295145,9.18295145035,1,2.27564657139,393.949103315
"633","ABCD_1705","a",66,13,0,1000,995.408524275,4.59147572517,0,2.58620077543,396.535408621
"634","ABCD_1705","a",67,14,0,1000,990.408524275,9.59147572517,0,2.36183670366,398.89733123
"635","ABCD_1705","a",68,15,0,1000,1014.59147573,14.5914757252,0,2.3104131823,401.207846282
"636","ABCD_1705","a",69,16,0,1000,980.408524275,19.5914757252,1,2.3103554052,403.518300137
"637","ABCD_1705","a",70,16,1,1000,1019.59147573,19.5914757252,1,2.62052493538,406.138907937
"638","ABCD_1708","a",1,0,0,1000,1500,500,1,2.50603692399,420.27032853
"639","ABCD_1708","a",2,0,1,1000,500,500,1,2.48252591407,422.75297684
"640","ABCD_1708","a",3,0,0,1000,750,250,1,2.67268407829,425.425775332
"641","ABCD_1708","a",4,0,1,1000,1250,250,1,2.3963152033,427.822190884
"642","ABCD_1708","a",5,0,0,1000,875,125,1,2.36251116576,430.184968508
"643","ABCD_1708","a",6,0,1,1000,1125,125,1,2.48229708721,432.667479978
"644","ABCD_1708","a",7,0,0,1000,937.5,62.5,1,2.44763703954,435.115234472
"645","ABCD_1708","a",8,0,1,1000,1062.5,62.5,0,2.58615939577,437.701483954
"646","ABCD_1708","a",9,1,0,1000,1102.5,102.5,1,2.34545862301,440.047179006
"647","ABCD_1708","a",10,1,1,1000,897.5,102.5,1,2.37897073525,442.426438245
"648","ABCD_1708","a",11,1,0,1000,1051.25,51.25,1,2.53411762917,444.960818911
"649","ABCD_1708","a",12,1,1,1000,1051.25,51.25,1,3.60377032169,448.564869755
"650","ABCD_1708","a",13,1,0,1000,974.375,25.625,0,4.01644512527,452.581594262
"651","ABCD_1708","a",14,2,0,1000,1065.625,65.625,1,2.65470786564,455.236574287
"652","ABCD_1708","a",15,2,1,1000,934.375,65.625,1,2.4309729703,457.667807253
"653","ABCD_1708","a",16,2,0,1000,1032.8125,32.8125,1,3.24109114683,460.909184244
"654","ABCD_1708","a",17,2,1,1000,967.1875,32.8125,1,2.39684127702,463.306273733
"655","ABCD_1708","a",18,2,0,1000,1016.40625,16.40625,0,2.56820446935,465.87474314
"656","ABCD_1708","a",19,3,0,1000,1056.40625,56.40625,1,2.4480787286,468.323196278
"657","ABCD_1708","a",20,3,1,1000,1056.40625,56.40625,1,2.32801342552,470.651515313
"658","ABCD_1708","a",21,3,0,1000,1028.203125,28.203125,1,2.49895849567,473.150761933
"659","ABCD_1708","a",22,3,1,1000,1028.203125,28.203125,1,2.36180758017,475.512856117
"660","ABCD_1708","a",23,3,0,1000,985.8984375,14.1015625,1,2.55124277314,478.064370669
"661","ABCD_1708","a",24,3,1,1000,1014.1015625,14.1015625,0,3.55146247734,481.616123171
"662","ABCD_1708","a",25,4,0,1000,1054.1015625,54.1015625,1,2.48229556677,484.098659348
"663","ABCD_1708","a",26,4,1,1000,1054.1015625,54.1015625,1,2.51710081686,486.615993173
"664","ABCD_1708","a",27,4,0,1000,972.94921875,27.05078125,1,2.34456954322,488.960805227
"665","ABCD_1708","a",28,4,1,1000,972.94921875,27.05078125,1,2.37917941622,491.340277329
"666","ABCD_1708","a",29,4,0,1000,1013.52539062,13.525390625,0,2.70664320114,494.047191169
"667","ABCD_1708","a",30,5,0,1000,1038.52539062,38.525390625,1,2.87901748891,496.926506665
"668","ABCD_1708","a",31,5,1,1000,961.474609375,38.525390625,1,2.41356198281,499.340367035
"669","ABCD_1708","a",32,5,0,1000,980.737304688,19.2626953125,1,2.60302150288,501.943647774
"670","ABCD_1708","a",33,5,1,1000,980.737304688,19.2626953125,0,2.60310854832,504.547006815
"671","ABCD_1708","a",34,6,0,1000,955.737304688,44.2626953125,0,2.96569345563,507.512954945
"672","ABCD_1708","a",35,7,0,1000,1069.26269531,69.2626953125,1,2.53385611276,510.047077896
"673","ABCD_1708","a",36,7,1,1000,930.737304688,69.2626953125,1,2.94789513496,512.995202998
"674","ABCD_1708","a",37,7,0,1000,1034.63134766,34.6313476562,1,2.68955378762,515.68500994
"675","ABCD_1708","a",38,7,1,1000,965.368652344,34.6313476562,1,2.43042294959,518.115634348
"676","ABCD_1708","a",39,7,0,1000,982.684326172,17.3156738281,1,4.10374143325,522.219633117
"677","ABCD_1708","a",40,7,1,1000,982.684326172,17.3156738281,0,2.96448850354,525.184296852
"678","ABCD_1708","a",41,8,0,1000,957.684326172,42.3156738281,1,3.31052451526,528.494904611
"679","ABCD_1708","a",42,8,1,1000,957.684326172,42.3156738281,1,2.62030781394,531.115302131
"680","ABCD_1708","a",43,8,0,1000,978.842163086,21.1578369141,0,2.70690471756,533.822282491
"681","ABCD_1708","a",44,9,0,1000,973.842163086,26.1578369141,1,2.89639502663,536.718769885
"682","ABCD_1708","a",45,9,1,1000,973.842163086,26.1578369141,1,2.672296365,539.391220195
"683","ABCD_1708","a",46,9,0,1000,1013.07891846,13.078918457,0,3.51724487895,542.908582908
"684","ABCD_1708","a",47,10,0,1000,1018.07891846,18.078918457,0,2.77566757007,545.684353108
"685","ABCD_1708","a",48,11,0,1000,1023.07891846,23.078918457,1,2.84462655988,548.529067093
"686","ABCD_1708","a",49,11,1,1000,1023.07891846,23.078918457,1,2.48287219525,551.012054082
"687","ABCD_1708","a",50,11,0,1000,1011.53945923,11.5394592285,1,2.24113143861,553.253296513
"688","ABCD_1708","a",51,11,1,1000,1011.53945923,11.5394592285,1,2.43098171286,555.684370973
"689","ABCD_1708","a",52,11,0,1000,994.230270386,5.76972961426,1,2.68962980983,558.374114436
"690","ABCD_1708","a",53,11,1,1000,1005.76972961,5.76972961426,1,2.39631938452,560.770526188
"691","ABCD_1708","a",54,11,0,1000,997.115135193,2.88486480713,1,2.53424382605,563.305019367
"692","ABCD_1708","a",55,11,1,1000,997.115135193,2.88486480713,1,2.55188668129,565.857039087
"693","ABCD_1708","a",56,11,0,1000,1001.4424324,1.44243240356,1,2.25860666487,568.115847971
"694","ABCD_1708","a",57,11,1,1000,998.557567596,1.44243240356,1,2.43054724591,570.546535478
"695","ABCD_1708","a",58,11,0,1000,1000.7212162,0.721216201782,0,2.5865140394,573.133426587
"696","ABCD_1708","a",59,12,0,1000,1005.7212162,5.72121620178,1,2.29255020317,575.426212839
"697","ABCD_1708","a",60,12,1,1000,994.278783798,5.72121620178,0,2.36164147164,577.788106325
"698","ABCD_1708","a",61,13,0,1000,989.278783798,10.7212162018,1,2.58641369008,580.374727555
"699","ABCD_1708","a",62,13,1,1000,1010.7212162,10.7212162018,1,2.37906386246,582.754068519
"700","ABCD_1708","a",63,13,0,1000,994.639391899,5.36060810089,0,2.37889319259,585.133187877
"701","ABCD_1708","a",64,14,0,1000,989.639391899,10.3606081009,0,2.27583862005,587.409286874
"702","ABCD_1708","a",65,15,0,1000,984.639391899,15.3606081009,1,2.49976129025,589.909336288
"703","ABCD_1708","a",66,15,1,1000,984.639391899,15.3606081009,0,2.29286075391,592.202487827
"704","ABCD_1708","a",67,16,0,1000,979.639391899,20.3606081009,0,2.22382878277,594.426650347
"705","ABCD_1708","r",1,0,0,1900,1400,500,1,2.47029736089,606.908473816
"706","ABCD_1708","r",2,0,1,1376,1876,500,1,2.46542851821,609.37399166
"707","ABCD_1708","r",3,0,0,1260,1010,250,1,2.32750369658,611.701597227
"708","ABCD_1708","r",4,0,1,1320,1570,250,1,2.62057123091,614.322260064
"709","ABCD_1708","r",5,0,0,1291,1166,125,1,2.34470144176,616.667051592
"710","ABCD_1708","r",6,0,1,1515,1390,125,1,2.84482231708,619.511963616
"711","ABCD_1708","r",7,0,0,1204,1266.5,62.5,1,2.75848008788,622.270520866
"712","ABCD_1708","r",8,0,1,1073,1135.5,62.5,0,2.84475237664,625.115362949
"713","ABCD_1708","r",9,1,0,1431.5,1329,102.5,0,3.10337310562,628.218827281
"714","ABCD_1708","r",10,2,0,1371,1513.5,142.5,1,2.79298314967,631.011897096
"715","ABCD_1708","r",11,2,1,1347.5,1205,142.5,1,3.70683021579,634.718819679
"716","ABCD_1708","r",12,2,0,1398.25,1327,71.25,1,2.56888752894,637.287793493
"717","ABCD_1708","r",13,2,1,1043,1114.25,71.25,1,2.60334877851,639.891231598
"718","ABCD_1708","r",14,2,0,1172,1207.625,35.625,1,2.91371440735,642.805028869
"719","ABCD_1708","r",15,2,1,1238.625,1203,35.625,1,3.01713464675,645.822247901
"720","ABCD_1708","r",16,2,0,1359.8125,1342,17.8125,0,3.25856143165,649.080899419
"721","ABCD_1708","r",17,3,0,1056,1113.8125,57.8125,0,3.05246825122,652.133442172
"722","ABCD_1708","r",18,4,0,1366,1463.8125,97.8125,1,2.77495752259,654.908503465
"723","ABCD_1708","r",19,4,1,1263.8125,1166,97.8125,1,2.44814486793,657.35674032
"724","ABCD_1708","r",20,4,0,1119,1167.90625,48.90625,1,2.6207320179,659.977552161
"725","ABCD_1708","r",21,4,1,1229.90625,1181,48.90625,1,2.84465392788,662.822297695
"726","ABCD_1708","r",22,4,0,1143,1167.453125,24.453125,1,2.58614419133,665.408547177
"727","ABCD_1708","r",23,4,1,1078,1102.453125,24.453125,1,2.41425834629,667.823019526
"728","ABCD_1708","r",24,4,0,1331.2265625,1319,12.2265625,0,3.06869595296,670.891978136
"729","ABCD_1708","r",25,5,0,1236.2265625,1199,37.2265625,1,2.53331597493,673.425442734
"730","ABCD_1708","r",26,5,1,1226.2265625,1189,37.2265625,0,3.72446546881,677.150017675
"731","ABCD_1708","r",27,6,0,1291.2265625,1229,62.2265625,1,3.87985639404,681.030022313
"732","ABCD_1708","r",28,6,1,1137.2265625,1075,62.2265625,1,2.65409360615,683.684233753
"733","ABCD_1708","r",29,6,0,1019,1050.11328125,31.11328125,0,2.62058529502,686.304896591
"734","ABCD_1708","r",30,7,0,1262.11328125,1206,56.11328125,1,3.44829425158,689.753288151
"735","ABCD_1708","r",31,7,1,1214.11328125,1158,56.11328125,1,3.01710651853,692.770485896
"736","ABCD_1708","r",32,7,0,1204.05664062,1176,28.056640625,1,2.94917610926,695.719741448
"737","ABCD_1708","r",33,7,1,1111,1139.05664062,28.056640625,1,2.30934617095,698.029186448
"738","ABCD_1708","r",34,7,0,1072,1086.02832031,14.0283203125,1,2.46525708812,700.494534383
"739","ABCD_1708","r",35,7,1,1345,1359.02832031,14.0283203125,1,2.53456996134,703.029202033
"740","ABCD_1708","r",36,7,0,1164,1171.01416016,7.01416015625,1,2.87924555555,705.908529312
"741","ABCD_1708","r",37,7,1,1277,1284.01416016,7.01416015625,1,2.24087106252,708.149490841
"742","ABCD_1708","r",38,7,0,1036,1039.50708008,3.50708007812,0,3.10406376743,711.253755307
"743","ABCD_1708","r",39,8,0,1203.50708008,1175,28.5070800781,0,2.72424120328,713.978263729
"744","ABCD_1708","r",40,9,0,1203,1236.50708008,33.5070800781,1,2.75824061791,716.73675636
"745","ABCD_1708","r",41,9,1,1140,1173.50708008,33.5070800781,0,3.27476746706,720.011925985
"746","ABCD_1708","r",42,10,0,1282,1320.50708008,38.5070800781,1,3.10410139843,723.116294601
"747","ABCD_1708","r",43,10,1,1234.50708008,1196,38.5070800781,1,2.93071373455,726.047298361
"748","ABCD_1708","r",44,10,0,1279.25354004,1260,19.2535400391,1,2.63775757276,728.685437945
"749","ABCD_1708","r",45,10,1,1409.25354004,1390,19.2535400391,0,2.46434178067,731.149912004
"750","ABCD_1708","r",46,11,0,1397.25354004,1373,24.2535400391,1,2.51715327219,733.667156883
"751","ABCD_1708","r",47,11,1,1160,1184.25354004,24.2535400391,1,3.94817527682,737.615409323
"752","ABCD_1708","r",48,11,0,1079.12677002,1067,12.1267700195,1,3.27572610717,740.891224376
"753","ABCD_1708","r",49,11,1,1281.12677002,1269,12.1267700195,0,2.75862985164,743.649944314
"754","ABCD_1708","r",50,12,0,1256,1273.12677002,17.1267700195,0,2.49989889046,746.149935571
"755","ABCD_1708","r",51,13,0,1305,1327.12677002,22.1267700195,1,2.84437682691,748.994395642
"756","ABCD_1708","r",52,13,1,1020,1042.12677002,22.1267700195,0,3.362347718,752.356816342
"757","ABCD_1708","r",53,14,0,1265.12677002,1238,27.1267700195,1,2.60336702384,754.960276493
"758","ABCD_1708","r",54,14,1,1202.12677002,1175,27.1267700195,1,2.58571846694,757.546084286
"759","ABCD_1708","r",55,14,0,1379,1392.56338501,13.5633850098,1,2.60371558569,760.149878555
"760","ABCD_1708","r",56,14,1,1174,1187.56338501,13.5633850098,1,2.24132833614,762.391297737
"761","ABCD_1708","r",57,14,0,1058,1064.7816925,6.78169250488,1,2.27572952817,764.667130275
"762","ABCD_1708","r",58,14,1,1351.7816925,1345,6.78169250488,0,2.53434683615,767.201551993
"763","ABCD_1708","r",59,15,0,1068,1079.7816925,11.7816925049,0,2.34482763864,769.546458695
"764","ABCD_1708","r",60,16,0,1237.7816925,1221,16.7816925049,0,2.44820720615,771.994754087
"765","ABCD_1709","r",1,0,0,1789,1289,500,1,2.76690550403,47.9752379504
"766","ABCD_1709","r",2,0,1,1139,1639,500,1,3.58652539152,51.5619093052
"767","ABCD_1709","r",3,0,0,1425,1175,250,0,4.0689185799,55.6309373575
"768","ABCD_1709","r",4,1,0,1326,1616,290,1,3.01706743196,58.6481055192
"769","ABCD_1709","r",5,1,1,1603,1313,290,1,2.72401018701,61.3721989509
"770","ABCD_1709","r",6,1,0,1196,1051,145,1,2.58617796868,63.9584886726
"771","ABCD_1709","r",7,1,1,1396,1251,145,1,2.70677132431,66.6653633876
"772","ABCD_1709","r",8,1,0,1382,1454.5,72.5,1,2.48271552379,69.1481807815
"773","ABCD_1709","r",9,1,1,1072,1144.5,72.5,1,3.87890527596,73.0271685419
"774","ABCD_1709","r",10,1,0,1201.25,1165,36.25,1,3.37948456743,76.4067454767
"775","ABCD_1709","r",11,1,1,1285,1321.25,36.25,0,2.98265394557,79.3895016725
"776","ABCD_1709","r",12,2,0,1385.25,1309,76.25,1,2.82748935685,82.2171054432
"777","ABCD_1709","r",13,2,1,1413.25,1337,76.25,0,2.68957123308,84.906797172
"778","ABCD_1709","r",14,3,0,1416.25,1300,116.25,1,2.70667781663,87.6135837008
"779","ABCD_1709","r",15,3,1,1399.25,1283,116.25,1,2.65511555421,90.2688102478
"780","ABCD_1709","r",16,3,0,1316,1374.125,58.125,1,2.84479435913,93.1137106584
"781","ABCD_1709","r",17,3,1,1400,1458.125,58.125,1,2.72401474836,95.8378196746
"782","ABCD_1709","r",18,3,0,1362.0625,1333,29.0625,1,2.9305618063,98.7684613045
"783","ABCD_1709","r",19,3,1,1299.0625,1270,29.0625,1,3.10358103999,101.872119127
"784","ABCD_1709","r",20,3,0,1166,1180.53125,14.53125,1,4.06856583549,105.940769728
"785","ABCD_1709","r",21,3,1,1372,1386.53125,14.53125,1,3.51756461913,109.458434697
"786","ABCD_1709","r",22,3,0,1391,1398.265625,7.265625,1,2.67235099589,112.130871218
"787","ABCD_1709","r",23,3,1,1134,1141.265625,7.265625,0,3.01715713851,115.148116542
"788","ABCD_1709","r",24,4,0,1222.265625,1175,47.265625,1,2.84476166945,117.992968299
"789","ABCD_1709","r",25,4,1,1198,1245.265625,47.265625,1,2.65498251482,120.648027976
"790","ABCD_1709","r",26,4,0,1148,1171.6328125,23.6328125,0,3.58608218033,124.234202524
"791","ABCD_1709","r",27,5,0,1007,1055.6328125,48.6328125,1,3.34496578987,127.579272845
"792","ABCD_1709","r",28,5,1,1173,1221.6328125,48.6328125,1,2.56882317166,130.148191045
"793","ABCD_1709","r",29,5,0,1040.31640625,1016,24.31640625,1,3.15510415083,133.303390604
"794","ABCD_1709","r",30,5,1,1163.31640625,1139,24.31640625,1,2.70670974608,136.010196518
"795","ABCD_1709","r",31,5,0,1354,1366.15820312,12.158203125,NA,0,140.596355101
"796","ABCD_1709","r",32,5,0,1377.15820312,1365,12.158203125,0,2.65501406416,143.251450509
"797","ABCD_1709","r",33,6,0,1090.15820312,1053,37.158203125,1,2.86205906948,146.113609168
"798","ABCD_1709","r",34,6,1,1419.15820312,1382,37.158203125,0,2.82760187015,148.941302265
"799","ABCD_1709","r",35,7,0,1163,1225.15820312,62.158203125,1,2.86194275505,151.803337388
"800","ABCD_1709","r",36,7,1,1180,1242.15820312,62.158203125,1,2.60340884902,154.406834043
"801","ABCD_1709","r",37,7,0,1049,1080.07910156,31.0791015625,0,3.37913030257,157.786055953
"802","ABCD_1709","r",38,8,0,1322,1378.07910156,56.0791015625,1,2.44820624905,160.234356089
"803","ABCD_1709","r",39,8,1,1298,1354.07910156,56.0791015625,1,2.36182111905,162.596258553
"804","ABCD_1709","r",40,8,0,1075,1103.03955078,28.0395507812,1,3.15529838832,165.751649308
"805","ABCD_1709","r",41,8,1,1044.03955078,1016,28.0395507812,1,2.65503573058,168.406774365
"806","ABCD_1709","r",42,8,0,1017,1031.01977539,14.0197753906,1,2.65512505702,171.06199179
"807","ABCD_1709","r",43,8,1,1106.01977539,1092,14.0197753906,1,2.7581195834,173.820221606
"808","ABCD_1709","r",44,8,0,1190.0098877,1183,7.00988769531,1,2.58640261517,176.406720769
"809","ABCD_1709","r",45,8,1,1294.0098877,1287,7.00988769531,0,2.87918998023,179.286019462
"810","ABCD_1709","r",46,9,0,1039,1051.0098877,12.0098876953,0,2.77579405504,182.061912726
"811","ABCD_1709","r",47,10,0,1065,1082.0098877,17.0098876953,1,3.77562756576,185.837613654
"812","ABCD_1709","r",48,10,1,1375.0098877,1358,17.0098876953,1,3.12077923065,188.958494754
"813","ABCD_1709","r",49,10,0,1332,1340.50494385,8.50494384766,1,2.6378584461,191.596464954
"814","ABCD_1709","r",50,10,1,1145,1153.50494385,8.50494384766,0,2.81023452942,194.406810476
"815","ABCD_1709","r",51,11,0,1087,1100.50494385,13.5049438477,1,2.72388513,197.130799377
"816","ABCD_1709","r",52,11,1,1365,1378.50494385,13.5049438477,0,3.12041470275,200.251294663
"817","ABCD_1709","r",53,12,0,1248,1266.50494385,18.5049438477,1,3.46574502053,203.717130531
"818","ABCD_1709","r",54,12,1,1241.50494385,1223,18.5049438477,0,2.44820624905,206.165423065
"819","ABCD_1709","r",55,13,0,1140.50494385,1117,23.5049438477,1,2.81012087578,208.975787973
"820","ABCD_1709","r",56,13,1,1388,1411.50494385,23.5049438477,0,2.96539873803,211.941288201
"821","ABCD_1709","r",57,14,0,1022,1050.50494385,28.5049438477,NA,0,216.527409153
"822","ABCD_1709","r",58,14,0,1176,1204.50494385,28.5049438477,1,2.7413395165,219.268848259
"823","ABCD_1709","r",59,14,1,1237,1265.50494385,28.5049438477,1,2.55137752775,221.820339821
"824","ABCD_1709","r",60,14,0,1276,1290.25247192,14.2524719238,1,2.51737646343,224.337808651
"825","ABCD_1709","r",61,14,1,1311,1325.25247192,14.2524719238,1,2.41370647712,226.751610537
"826","ABCD_1709","r",62,14,0,1335.12623596,1328,7.12623596191,0,2.51685456895,229.268539608
"827","ABCD_1709","r",63,15,0,1213.12623596,1201,12.1262359619,0,2.63814809184,231.906774745
"828","ABCD_1709","r",64,16,0,1195.12623596,1178,17.1262359619,1,2.75852782424,234.665410902
"829","ABCD_1709","r",65,16,1,1389.12623596,1372,17.1262359619,1,2.7239885206,237.389500152
"830","ABCD_1709","r",66,16,0,1002,1010.56311798,8.56311798096,0,3.65512315645,241.044733921
"831","ABCD_1709","a",1,0,0,1000,500,500,1,3.64157632659,247.148146571
"832","ABCD_1709","a",2,0,1,1000,500,500,1,3.74093887791,250.889170214
"833","ABCD_1709","a",3,0,0,1000,750,250,1,3.65549072525,254.544765471
"834","ABCD_1709","a",4,0,1,1000,1250,250,1,2.98270145963,257.527570321
"835","ABCD_1709","a",5,0,0,1000,1125,125,1,2.87916375247,260.406821879
"836","ABCD_1709","a",6,0,1,1000,1125,125,1,2.62053899954,263.02746731
"837","ABCD_1709","a",7,0,0,1000,937.5,62.5,1,2.8964733161,265.924029193
"838","ABCD_1709","a",8,0,1,1000,937.5,62.5,1,2.51715295727,268.441288201
"839","ABCD_1709","a",9,0,0,1000,1031.25,31.25,1,2.48265166489,270.924027672
"840","ABCD_1709","a",10,0,1,1000,1031.25,31.25,1,2.43098449141,273.35510149
"841","ABCD_1709","a",11,0,0,1000,1015.625,15.625,1,3.99989204805,277.355079444
"842","ABCD_1709","a",12,0,1,1000,984.375,15.625,1,2.8273118443,280.182477193
"843","ABCD_1709","a",13,0,0,1000,1007.8125,7.8125,1,3.08628287973,283.268865744
"844","ABCD_1709","a",14,0,1,1000,1007.8125,7.8125,1,2.63781093204,285.906773985
"845","ABCD_1709","a",15,0,0,1000,996.09375,3.90625,0,2.67236848107,288.579252319
"846","ABCD_1709","a",16,1,0,1000,956.09375,43.90625,1,2.6205952562,291.199939562
"847","ABCD_1709","a",17,1,1,1000,1043.90625,43.90625,1,2.89681731793,294.096847727
"848","ABCD_1709","a",18,1,0,1000,978.046875,21.953125,1,2.62001140338,296.716947697
"849","ABCD_1709","a",19,1,1,1000,978.046875,21.953125,1,2.63801239167,299.355053216
"850","ABCD_1709","a",20,1,0,1000,1010.9765625,10.9765625,1,2.79301885358,302.148166337
"851","ABCD_1709","a",21,1,1,1000,989.0234375,10.9765625,1,2.56869355329,304.716946176
"852","ABCD_1709","a",22,1,0,1000,994.51171875,5.48828125,1,2.7413790482,307.458434317
"853","ABCD_1709","a",23,1,1,1000,994.51171875,5.48828125,0,2.43095028128,309.889484567
"854","ABCD_1709","a",24,2,0,1000,1045.48828125,45.48828125,0,2.32761631443,312.217205033
"855","ABCD_1709","a",25,3,0,1000,914.51171875,85.48828125,1,2.55142732249,314.768728144
"856","ABCD_1709","a",26,3,1,1000,914.51171875,85.48828125,1,2.56894822868,317.337783944
"857","ABCD_1709","a",27,3,0,1000,1042.74414062,42.744140625,1,2.51720617303,319.855077923
"858","ABCD_1709","a",28,3,1,1000,1042.74414062,42.744140625,1,2.48267599209,322.337840581
"859","ABCD_1709","a",29,3,0,1000,978.627929688,21.3720703125,1,3.49992321727,325.837856546
"860","ABCD_1709","a",30,3,1,1000,1021.37207031,21.3720703125,1,3.86192983123,329.699877984
"861","ABCD_1709","a",31,3,0,1000,989.313964844,10.6860351562,1,3.84477193249,333.544760529
"862","ABCD_1709","a",32,3,1,1000,1010.68603516,10.6860351562,1,2.56885129998,336.11371712
"863","ABCD_1709","a",33,3,0,1000,1005.34301758,5.34301757812,1,2.58609814505,338.699923217
"864","ABCD_1709","a",34,3,1,1000,994.656982422,5.34301757812,0,2.41369963509,341.113725863
"865","ABCD_1709","a",35,4,0,1000,954.656982422,45.3430175781,1,2.53440740459,343.648237798
"866","ABCD_1709","a",36,4,1,1000,954.656982422,45.3430175781,1,2.67231412498,346.320662536
"867","ABCD_1709","a",37,4,0,1000,977.328491211,22.6715087891,1,2.48256005778,348.803329025
"868","ABCD_1709","a",38,4,1,1000,1022.67150879,22.6715087891,1,2.70671468755,351.510154326
"869","ABCD_1709","a",39,4,0,1000,988.664245605,11.3357543945,0,4.3620685723,355.872325528
"870","ABCD_1709","a",40,5,0,1000,1036.33575439,36.3357543945,1,2.55165272921,358.424084309
"871","ABCD_1709","a",41,5,1,1000,1036.33575439,36.3357543945,1,2.53434848715,360.958535807
"872","ABCD_1709","a",42,5,0,1000,1018.1678772,18.1678771973,1,2.4653371598,363.424104455
"873","ABCD_1709","a",43,5,1,1000,1018.1678772,18.1678771973,1,2.53422913182,365.958425574
"874","ABCD_1709","a",44,5,0,1000,1009.0839386,9.08393859863,1,2.65511365364,368.613643759
"875","ABCD_1709","a",45,5,1,1000,1009.0839386,9.08393859863,1,2.4998905276,371.113640718
"876","ABCD_1709","a",46,5,0,1000,995.458030701,4.54196929932,0,3.17229587958,374.286019842
"877","ABCD_1709","a",47,6,0,1000,970.458030701,29.5419692993,1,2.5862121788,376.872343394
"878","ABCD_1709","a",48,6,1,1000,1029.5419693,29.5419692993,1,2.60337045766,379.475803938
"879","ABCD_1709","a",49,6,0,1000,1014.77098465,14.7709846497,0,2.82748707617,382.303399346
"880","ABCD_1709","a",50,7,0,1000,960.22901535,39.7709846497,1,2.93073057625,385.234219249
"881","ABCD_1709","a",51,7,1,1000,960.22901535,39.7709846497,1,3.86217272313,389.096505246
"882","ABCD_1709","a",52,7,0,1000,980.114507675,19.8854923248,1,3.34475254675,392.441353961
"883","ABCD_1709","a",53,7,1,1000,1019.88549232,19.8854923248,1,2.29274403223,394.734227991
"884","ABCD_1709","a",54,7,0,1000,1009.94274616,9.94274616241,0,2.98285160407,397.717181086
"885","ABCD_1709","a",55,8,0,1000,1034.94274616,34.9427461624,1,2.46536604835,400.182650525
"886","ABCD_1709","a",56,8,1,1000,1034.94274616,34.9427461624,1,2.29317622016,402.475917211
"887","ABCD_1709","a",57,8,0,1000,1017.47137308,17.4713730812,1,2.2238425574,404.699866581
"888","ABCD_1709","a",58,8,1,1000,982.528626919,17.4713730812,1,2.51721415539,407.217183746
"889","ABCD_1709","a",59,8,0,1000,991.264313459,8.7356865406,1,2.63818116162,409.855457655
"890","ABCD_1709","a",60,8,1,1000,1008.73568654,8.7356865406,1,2.79269081648,412.64824464
"891","ABCD_1709","a",61,8,0,1000,1004.36784327,4.3678432703,1,3.53435798997,416.182695758
"892","ABCD_1709","a",62,8,1,1000,995.63215673,4.3678432703,0,2.34474988597,418.527557777
"893","ABCD_1709","a",63,9,0,1000,1009.36784327,9.3678432703,0,2.53435380873,421.062020298
"894","ABCD_1709","a",64,10,0,1000,985.63215673,14.3678432703,1,2.56885586134,423.630970047
"895","ABCD_1709","a",65,10,1,1000,1014.36784327,14.3678432703,1,2.63785654554,426.268916679
"896","ABCD_1709","a",66,10,0,1000,1007.18392164,7.18392163515,1,2.74128059906,429.010291166
"897","ABCD_1709","a",67,10,1,1000,1007.18392164,7.18392163515,1,2.56911319751,431.579511555
"898","ABCD_1709","a",68,10,0,1000,996.408039182,3.59196081758,0,2.77535502509,434.354949065
"899","ABCD_1709","a",69,11,0,1000,1008.59196082,8.59196081758,1,2.58624486848,436.94131709
"900","ABCD_1709","a",70,11,1,1000,1008.59196082,8.59196081758,1,2.39605937358,439.337452486
"901","ABCD_1710","a",1,0,0,1000,1500,500,1,2.35656309128,80.7463428974
"902","ABCD_1710","a",2,0,1,1000,500,500,1,2.45506596565,83.2017018795
"903","ABCD_1710","a",3,0,0,1000,1250,250,1,2.30465006828,85.506747961
"904","ABCD_1710","a",4,0,1,1000,750,250,1,2.38806796074,87.895198822
"905","ABCD_1710","a",5,0,0,1000,875,125,1,2.48818087578,90.3837800026
"906","ABCD_1710","a",6,0,1,1000,875,125,1,2.28814697266,92.6723818779
"907","ABCD_1710","a",7,0,0,1000,1062.5,62.5,1,2.48780202866,95.1603868008
"908","ABCD_1710","a",8,0,1,1000,1062.5,62.5,1,1.9205789566,97.0811460018
"909","ABCD_1710","a",9,0,0,1000,1031.25,31.25,0,2.82241797447,99.9037368298
"910","ABCD_1710","a",10,1,0,1000,928.75,71.25,1,2.70597410202,102.609946012
"911","ABCD_1710","a",11,1,1,1000,928.75,71.25,1,2.32110905647,104.931233883
"912","ABCD_1710","a",12,1,0,1000,1035.625,35.625,1,2.43840289116,107.369805813
"913","ABCD_1710","a",13,1,1,1000,1035.625,35.625,1,2.02084183693,109.390987873
"914","ABCD_1710","a",14,1,0,1000,982.1875,17.8125,1,2.67191696167,112.063103914
"915","ABCD_1710","a",15,1,1,1000,982.1875,17.8125,1,2.43850111961,114.501978874
"916","ABCD_1710","a",16,1,0,1000,991.09375,8.90625,1,2.15407299995,116.656385899
"917","ABCD_1710","a",17,1,1,1000,1008.90625,8.90625,0,2.23780798912,118.894587994
"918","ABCD_1710","a",18,2,0,1000,951.09375,48.90625,0,1.93700289726,120.831791878
"919","ABCD_1710","a",19,3,0,1000,1088.90625,88.90625,1,2.77280282974,123.604979038
"920","ABCD_1710","a",20,3,1,1000,1088.90625,88.90625,1,2.12035894394,125.725734949
"921","ABCD_1710","a",21,3,0,1000,1044.453125,44.453125,1,1.9205698967,127.646659851
"922","ABCD_1710","a",22,3,1,1000,955.546875,44.453125,1,2.47139501572,130.11826396
"923","ABCD_1710","a",23,3,0,1000,977.7734375,22.2265625,1,2.4885571003,132.607141018
"924","ABCD_1710","a",24,3,1,1000,977.7734375,22.2265625,1,2.77222084999,135.379750013
"925","ABCD_1710","a",25,3,0,1000,988.88671875,11.11328125,0,2.75543999672,138.135392904
"926","ABCD_1710","a",26,4,0,1000,1051.11328125,51.11328125,1,2.27131104469,140.406878948
"927","ABCD_1710","a",27,4,1,1000,948.88671875,51.11328125,1,2.23798203468,142.645179033
"928","ABCD_1710","a",28,4,0,1000,1025.55664062,25.556640625,1,2.60513710976,145.25049901
"929","ABCD_1710","a",29,4,1,1000,1025.55664062,25.556640625,1,2.25462603569,147.505295038
"930","ABCD_1710","a",30,4,0,1000,987.221679688,12.7783203125,1,2.17119717598,149.676663876
"931","ABCD_1710","a",31,4,1,1000,987.221679688,12.7783203125,1,2.57197093964,152.248816013
"932","ABCD_1710","a",32,4,0,1000,1006.38916016,6.38916015625,0,2.38877511024,154.637809992
"933","ABCD_1710","a",33,5,0,1000,1031.38916016,31.3891601562,1,2.1372089386,156.775339842
"934","ABCD_1710","a",34,5,1,1000,1031.38916016,31.3891601562,1,2.05395197868,158.8294909
"935","ABCD_1710","a",35,5,0,1000,1015.69458008,15.6945800781,1,1.95399785042,160.783658981
"936","ABCD_1710","a",36,5,1,1000,1015.69458008,15.6945800781,1,2.0708220005,162.854636908
"937","ABCD_1710","a",37,5,0,1000,1007.84729004,7.84729003906,1,1.95476102829,164.809662819
"938","ABCD_1710","a",38,5,1,1000,1007.84729004,7.84729003906,1,1.90303611755,166.712870836
"939","ABCD_1710","a",39,5,0,1000,1003.92364502,3.92364501953,1,2.05440592766,168.767647982
"940","ABCD_1710","a",40,5,1,1000,996.07635498,3.92364501953,0,1.95369911194,170.721550941
"941","ABCD_1710","a",41,6,0,1000,1028.92364502,28.9236450195,0,2.53859901428,173.260445833
"942","ABCD_1710","a",42,7,0,1000,946.07635498,53.9236450195,1,2.755671978,176.016469955
"943","ABCD_1710","a",43,7,1,1000,1053.92364502,53.9236450195,1,2.93901109695,178.955886841
"944","ABCD_1710","a",44,7,0,1000,1026.96182251,26.9618225098,1,2.22109603882,181.177378893
"945","ABCD_1710","a",45,7,1,1000,1026.96182251,26.9618225098,1,2.15419316292,183.331916809
"946","ABCD_1710","a",46,7,0,1000,986.519088745,13.4809112549,0,1.97049212456,185.302624941
"947","ABCD_1710","a",47,8,0,1000,961.519088745,38.4809112549,1,3.37382698059,188.676738024
"948","ABCD_1710","a",48,8,1,1000,961.519088745,38.4809112549,1,2.0539329052,190.730867863
"949","ABCD_1710","a",49,8,0,1000,1019.24045563,19.2404556274,1,2.62217497826,193.353363991
"950","ABCD_1710","a",50,8,1,1000,980.759544373,19.2404556274,0,3.15638804436,196.510120869
"951","ABCD_1710","a",51,9,0,1000,1024.24045563,24.2404556274,0,2.75544810295,199.265919924
"952","ABCD_1710","a",52,10,0,1000,970.759544373,29.2404556274,0,3.35682702065,202.623096943
"953","ABCD_1710","a",53,11,0,1000,965.759544373,34.2404556274,1,2.43812799454,205.061420918
"954","ABCD_1710","a",54,11,1,1000,965.759544373,34.2404556274,1,2.03748822212,207.099108934
"955","ABCD_1710","a",55,11,0,1000,982.879772186,17.1202278137,1,2.40499997139,209.504271984
"956","ABCD_1710","a",56,11,1,1000,1017.12022781,17.1202278137,1,3.22337603569,212.727805853
"957","ABCD_1710","a",57,11,0,1000,991.439886093,8.56011390686,1,2.57195782661,215.29993391
"958","ABCD_1710","a",58,11,1,1000,1008.56011391,8.56011390686,1,2.17125105858,217.471534967
"959","ABCD_1710","a",59,11,0,1000,1004.28005695,4.28005695343,1,2.42146396637,219.893349886
"960","ABCD_1710","a",60,11,1,1000,995.719943047,4.28005695343,0,2.07069611549,221.96440196
"961","ABCD_1710","a",61,12,0,1000,990.719943047,9.28005695343,0,3.07279992104,225.037411928
"962","ABCD_1710","a",62,13,0,1000,1014.28005695,14.2800569534,0,2.70553302765,227.743105888
"963","ABCD_1710","a",63,14,0,1000,980.719943047,19.2800569534,1,2.95618796349,230.699589014
"964","ABCD_1710","a",64,14,1,1000,980.719943047,19.2800569534,1,2.33796906471,233.037760973
"965","ABCD_1710","a",65,14,0,1000,990.359971523,9.64002847672,1,2.07089304924,235.108835936
"966","ABCD_1710","a",66,14,1,1000,990.359971523,9.64002847672,1,2.07089805603,237.179903984
"967","ABCD_1710","a",67,14,0,1000,995.179985762,4.82001423836,1,2.37208414078,239.552238941
"968","ABCD_1710","a",68,14,1,1000,1004.82001424,4.82001423836,0,2.27074098587,241.823153019
"969","ABCD_1710","a",69,15,0,1000,1009.82001424,9.82001423836,0,3.34035015106,245.163836002
"970","ABCD_1710","a",70,16,0,1000,1014.82001424,14.8200142384,1,2.13734507561,247.301379919
"971","ABCD_1710","r",1,0,0,1362,1862,500,1,3.0641169548,264.889247894
"972","ABCD_1710","r",2,0,1,1763,1263,500,1,2.27119898796,267.160782814
"973","ABCD_1710","r",3,0,0,1348,1598,250,0,2.88919591904,270.050329924
"974","ABCD_1710","r",4,1,0,1245,1535,290,1,1.98715305328,272.037875891
"975","ABCD_1710","r",5,1,1,1501,1211,290,1,2.40462994576,274.442699909
"976","ABCD_1710","r",6,1,0,1255,1400,145,1,2.25470113754,276.69756484
"977","ABCD_1710","r",7,1,1,1410,1265,145,0,2.63877105713,279.336508989
"978","ABCD_1710","r",8,2,0,1386,1201,185,1,4.2088561058,283.545725822
"979","ABCD_1710","r",9,2,1,1318,1133,185,1,2.73878788948,286.284880877
"980","ABCD_1710","r",10,2,0,1207,1299.5,92.5,1,2.25429391861,288.539377928
"981","ABCD_1710","r",11,2,1,1421.5,1329,92.5,1,2.18795919418,290.727689981
"982","ABCD_1710","r",12,2,0,1055.25,1009,46.25,0,2.52164697647,293.249724865
"983","ABCD_1710","r",13,3,0,1346.25,1260,86.25,1,2.73874282837,295.988665819
"984","ABCD_1710","r",14,3,1,1358,1444.25,86.25,1,3.15657806396,299.145417929
"985","ABCD_1710","r",15,3,0,1438.125,1395,43.125,0,2.13776016235,301.283540964
"986","ABCD_1710","r",16,4,0,1370.125,1287,83.125,1,2.32115697861,303.604897022
"987","ABCD_1710","r",17,4,1,1213,1296.125,83.125,1,1.97080087662,305.576062918
"988","ABCD_1710","r",18,4,0,1341.5625,1300,41.5625,1,3.49033689499,309.066723824
"989","ABCD_1710","r",19,4,1,1150,1191.5625,41.5625,0,2.85580992699,311.92293191
"990","ABCD_1710","r",20,5,0,1132.5625,1066,66.5625,1,2.50487709045,314.428017855
"991","ABCD_1710","r",21,5,1,1296.5625,1230,66.5625,0,2.1878259182,316.616012812
"992","ABCD_1710","r",22,6,0,1137,1228.5625,91.5625,1,2.40493607521,319.021116018
"993","ABCD_1710","r",23,6,1,1185.5625,1094,91.5625,1,2.50517702103,321.526409864
"994","ABCD_1710","r",24,6,0,1305,1350.78125,45.78125,1,2.52190089226,324.048416853
"995","ABCD_1710","r",25,6,1,1277.78125,1232,45.78125,0,3.15661597252,327.205150843
"996","ABCD_1710","r",26,7,0,1298,1368.78125,70.78125,1,2.47187900543,329.677191973
"997","ABCD_1710","r",27,7,1,1187,1257.78125,70.78125,0,2.35488200188,332.032259941
"998","ABCD_1710","r",28,8,0,1325.78125,1230,95.78125,1,2.98953795433,335.021961927
"999","ABCD_1710","r",29,8,1,1127.78125,1032,95.78125,1,2.80577898026,337.82790184
"1000","ABCD_1710","r",30,8,0,1168,1215.890625,47.890625,1,2.28810501099,340.11637187
"1001","ABCD_1710","r",31,8,1,1086,1133.890625,47.890625,1,2.13732814789,342.253871918
"1002","ABCD_1710","r",32,8,0,1338.9453125,1315,23.9453125,0,2.70583105087,344.959811926
"1003","ABCD_1710","r",33,9,0,1238.9453125,1210,28.9453125,0,3.02291917801,347.982872009
"1004","ABCD_1710","r",34,10,0,1316.9453125,1283,33.9453125,0,2.82259607315,350.805835962
"1005","ABCD_1710","r",35,11,0,1307.9453125,1269,38.9453125,1,2.08732509613,352.893369913
"1006","ABCD_1710","r",36,11,1,1039,1077.9453125,38.9453125,0,2.92272686958,355.816267967
"1007","ABCD_1710","r",37,12,0,1389.9453125,1346,43.9453125,0,3.35693311691,359.173318863
"1008","ABCD_1710","r",38,13,0,1175,1223.9453125,48.9453125,0,2.47184419632,361.645324945
"1009","ABCD_1710","r",39,14,0,1293,1346.9453125,53.9453125,1,2.67216396332,364.317749023
"1010","ABCD_1710","r",40,14,1,1201,1254.9453125,53.9453125,1,2.0209300518,366.339038849
"1011","ABCD_1710","r",41,14,0,1378,1404.97265625,26.97265625,1,2.00369811058,368.342952013
"1012","ABCD_1710","r",42,14,1,1319,1345.97265625,26.97265625,1,1.98734807968,370.330690861
"1013","ABCD_1710","r",43,14,0,1316,1329.48632812,13.486328125,1,2.08745408058,372.418349028
"1014","ABCD_1710","r",44,14,1,1185,1198.48632812,13.486328125,1,2.05420708656,374.472751856
"1015","ABCD_1710","r",45,14,0,1221.74316406,1215,6.7431640625,0,1.98740386963,376.460515976
"1016","ABCD_1710","r",46,15,0,1356.74316406,1345,11.7431640625,1,2.78892207146,379.249809027
"1017","ABCD_1710","r",47,15,1,1331,1342.74316406,11.7431640625,0,2.1875538826,381.437583923
"1018","ABCD_1710","r",48,16,0,1093,1109.74316406,16.7431640625,0,2.78910803795,384.227025986
"1019","ABCD_1714","r",1,0,0,1779,1279,500,1,2.45787723173,72.8415354967
"1020","ABCD_1714","r",2,0,1,1807,1307,500,1,2.10334877851,74.9450256765
"1021","ABCD_1714","r",3,0,0,1520,1270,250,1,2.55157727088,77.4966884724
"1022","ABCD_1714","r",4,0,1,1317,1067,250,0,2.22410588374,79.720906869
"1023","ABCD_1714","r",5,1,0,1530,1240,290,1,2.12054044192,81.8415423387
"1024","ABCD_1714","r",6,1,1,1332,1622,290,1,2.36196494616,84.2035992717
"1025","ABCD_1714","r",7,1,0,1480,1335,145,0,2.18932077953,86.3930375056
"1026","ABCD_1714","r",8,2,0,1541,1356,185,1,2.05155332388,88.4446771147
"1027","ABCD_1714","r",9,2,1,1496,1311,185,1,2.24147848001,90.6864718471
"1028","ABCD_1714","r",10,2,0,1124,1216.5,92.5,1,2.84424682892,93.5308106629
"1029","ABCD_1714","r",11,2,1,1363.5,1271,92.5,1,2.67274261539,96.20366199
"1030","ABCD_1714","r",12,2,0,1328,1374.25,46.25,1,2.672292944,98.8760427397
"1031","ABCD_1714","r",13,2,1,1342,1388.25,46.25,0,2.72405152786,101.600182453
"1032","ABCD_1714","r",14,3,0,1116,1202.25,86.25,0,2.39642391507,103.996696835
"1033","ABCD_1714","r",15,4,0,1038,1164.25,126.25,1,2.60343582395,106.600223885
"1034","ABCD_1714","r",16,4,1,1260.25,1134,126.25,0,2.39640604985,108.996729904
"1035","ABCD_1714","r",17,5,0,1345,1496.25,151.25,0,2.51688453366,111.513691221
"1036","ABCD_1714","r",18,6,0,1492.25,1316,176.25,0,2.29326367165,113.807035096
"1037","ABCD_1714","r",19,7,0,1257.25,1056,201.25,1,2.10325451097,115.910378933
"1038","ABCD_1714","r",20,7,1,1417.25,1216,201.25,0,2.44806542472,118.358546607
"1039","ABCD_1714","r",21,8,0,1397.25,1171,226.25,1,2.34483866186,120.703470034
"1040","ABCD_1714","r",22,8,1,1001,1227.25,226.25,1,2.34491050285,123.048466822
"1041","ABCD_1714","r",23,8,0,1408.125,1295,113.125,0,2.58608375367,125.634638381
"1042","ABCD_1714","r",24,9,0,1508.125,1390,118.125,1,2.05166621687,127.686410649
"1043","ABCD_1714","r",25,9,1,1339.125,1221,118.125,1,2.41361291769,130.100106811
"1044","ABCD_1714","r",26,9,0,1284,1343.0625,59.0625,0,2.01724487895,132.117434174
"1045","ABCD_1714","r",27,10,0,1322,1386.0625,64.0625,1,2.03438332681,134.151911389
"1046","ABCD_1714","r",28,10,1,1409.0625,1345,64.0625,1,2.43103188752,136.583027281
"1047","ABCD_1714","r",29,10,0,1334,1366.03125,32.03125,0,2.55169320475,139.134829197
"1048","ABCD_1714","r",30,11,0,1277.03125,1240,37.03125,0,2.05148794478,141.186398486
"1049","ABCD_1714","r",31,12,0,1339,1381.03125,42.03125,0,1.98256278485,143.169040334
"1050","ABCD_1714","r",32,13,0,1057.03125,1010,47.03125,0,2.43105089307,145.600193857
"1051","ABCD_1714","r",33,14,0,1321,1373.03125,52.03125,0,2.24125649515,147.841552222
"1052","ABCD_1714","r",34,15,0,1413.03125,1356,57.03125,0,2.60339705262,150.445050764
"1053","ABCD_1714","r",35,16,0,1300,1362.03125,62.03125,0,2.24127930181,152.686439918
"1054","ABCD_1714","a",1,0,0,1000,1500,500,1,2.52220722895,158.807026353
"1055","ABCD_1714","a",2,0,1,1000,1500,500,1,2.22410398318,161.031226504
"1056","ABCD_1714","a",3,0,0,1000,1250,250,0,2.67229598489,163.703612195
"1057","ABCD_1714","a",4,1,0,1000,710,290,1,2.39596778179,166.099694391
"1058","ABCD_1714","a",5,1,1,1000,1290,290,1,2.34510740038,168.444904801
"1059","ABCD_1714","a",6,1,0,1000,855,145,1,2.53451256457,170.979513914
"1060","ABCD_1714","a",7,1,1,1000,855,145,1,2.48236968842,173.461990414
"1061","ABCD_1714","a",8,1,0,1000,927.5,72.5,0,2.5518904824,176.013987707
"1062","ABCD_1714","a",9,2,0,1000,1112.5,112.5,1,2.67224428978,178.686331586
"1063","ABCD_1714","a",10,2,1,1000,887.5,112.5,1,2.53449127835,181.220918272
"1064","ABCD_1714","a",11,2,0,1000,943.75,56.25,1,2.70674088969,183.927765593
"1065","ABCD_1714","a",12,2,1,1000,943.75,56.25,1,2.36197634949,186.289842292
"1066","ABCD_1714","a",13,2,0,1000,1028.125,28.125,1,2.60335790118,188.893308145
"1067","ABCD_1714","a",14,2,1,1000,1028.125,28.125,1,2.5516156621,191.445021495
"1068","ABCD_1714","a",15,2,0,1000,1014.0625,14.0625,1,2.3446683721,193.789773872
"1069","ABCD_1714","a",16,2,1,1000,1014.0625,14.0625,1,2.24126447748,196.031121214
"1070","ABCD_1714","a",17,2,0,1000,1007.03125,7.03125,1,2.27574511272,198.306970477
"1071","ABCD_1714","a",18,2,1,1000,992.96875,7.03125,0,2.49997149167,200.807020651
"1072","ABCD_1714","a",19,3,0,1000,1047.03125,47.03125,1,2.51728669117,203.324397429
"1073","ABCD_1714","a",20,3,1,1000,1047.03125,47.03125,1,2.4481095176,205.772613758
"1074","ABCD_1714","a",21,3,0,1000,1023.515625,23.515625,1,2.60333699507,208.376038939
"1075","ABCD_1714","a",22,3,1,1000,1023.515625,23.515625,1,2.34475389709,210.72087646
"1076","ABCD_1714","a",23,3,0,1000,988.2421875,11.7578125,0,2.15507657338,212.876038178
"1077","ABCD_1714","a",24,4,0,1000,1051.7578125,51.7578125,1,2.10332901274,214.979454997
"1078","ABCD_1714","a",25,4,1,1000,948.2421875,51.7578125,0,1.98215340522,216.961857375
"1079","ABCD_1714","a",26,5,0,1000,923.2421875,76.7578125,1,2.06930261022,219.031274778
"1080","ABCD_1714","a",27,5,1,1000,923.2421875,76.7578125,1,2.22398234764,221.255344932
"1081","ABCD_1714","a",28,5,0,1000,961.62109375,38.37890625,1,2.41369768246,223.669133461
"1082","ABCD_1714","a",29,5,1,1000,1038.37890625,38.37890625,1,2.74086726141,226.410091949
"1083","ABCD_1714","a",30,5,0,1000,1019.18945312,19.189453125,0,3.01759876236,229.427780798
"1084","ABCD_1714","a",31,6,0,1000,1044.18945312,44.189453125,1,2.2239363542,231.65184829
"1085","ABCD_1714","a",32,6,1,1000,1044.18945312,44.189453125,1,2.39629315686,234.048271065
"1086","ABCD_1714","a",33,6,0,1000,1022.09472656,22.0947265625,1,2.65493707261,236.703291382
"1087","ABCD_1714","a",34,6,1,1000,977.905273438,22.0947265625,1,2.48304666624,239.186422433
"1088","ABCD_1714","a",35,6,0,1000,988.952636719,11.0473632812,0,3.27581087194,242.462322631
"1089","ABCD_1714","a",36,7,0,1000,963.952636719,36.0473632812,1,2.46532018656,244.927732523
"1090","ABCD_1714","a",37,7,1,1000,963.952636719,36.0473632812,1,3.0516913042,247.979518855
"1091","ABCD_1714","a",38,7,0,1000,981.976318359,18.0236816406,0,2.27555505719,250.255175402
"1092","ABCD_1714","a",39,8,0,1000,956.976318359,43.0236816406,1,1.9828429267,252.238118298
"1093","ABCD_1714","a",40,8,1,1000,956.976318359,43.0236816406,0,2.53434797648,254.772567764
"1094","ABCD_1714","a",41,9,0,1000,951.976318359,48.0236816406,1,2.4481885807,257.220847572
"1095","ABCD_1714","a",42,9,1,1000,1048.02368164,48.0236816406,1,2.53437382403,259.75530616
"1096","ABCD_1714","a",43,9,0,1000,975.98815918,24.0118408203,0,3.22398120731,262.979390378
"1097","ABCD_1714","a",44,10,0,1000,970.98815918,29.0118408203,1,2.55178481152,265.531274398
"1098","ABCD_1714","a",45,10,1,1000,970.98815918,29.0118408203,1,2.6895602495,268.220953623
"1099","ABCD_1714","a",46,10,0,1000,985.49407959,14.5059204102,1,2.48259585451,270.703636903
"1100","ABCD_1714","a",47,10,1,1000,985.49407959,14.5059204102,0,2.67231879155,273.376039319
"1101","ABCD_1714","a",48,11,0,1000,980.49407959,19.5059204102,1,2.36203678715,275.738245635
"1102","ABCD_1714","a",49,11,1,1000,980.49407959,19.5059204102,1,2.60317696831,278.341536637
"1103","ABCD_1714","a",50,11,0,1000,990.247039795,9.75296020508,1,2.39648891406,280.738116398
"1104","ABCD_1714","a",51,11,1,1000,1009.75296021,9.75296020508,0,2.20683667768,282.945051144
"1105","ABCD_1714","a",52,12,0,1000,985.247039795,14.7529602051,0,2.2929839099,285.23812476
"1106","ABCD_1714","a",53,13,0,1000,980.247039795,19.7529602051,1,2.68957469373,287.927795622
"1107","ABCD_1714","a",54,13,1,1000,1019.75296021,19.7529602051,1,2.58607577134,290.513981625
"1108","ABCD_1714","a",55,13,0,1000,990.123519897,9.87648010254,0,2.68957165284,293.203642984
"1109","ABCD_1714","a",56,14,0,1000,1014.8764801,14.8764801025,0,2.70677205879,295.910516153
"1110","ABCD_1714","a",57,15,0,1000,1019.8764801,19.8764801025,1,2.43096498797,298.341589472
"1111","ABCD_1714","a",58,15,1,1000,1019.8764801,19.8764801025,1,2.37925809922,300.720954003
"1112","ABCD_1714","a",59,15,0,1000,990.061759949,9.93824005127,0,2.63775339154,303.358799381
"1113","ABCD_1714","a",60,16,0,1000,985.061759949,14.9382400513,1,2.22398120731,305.582883599
"1114","ABCD_1714","a",61,16,1,1000,985.061759949,14.9382400513,1,2.08619968755,307.669180214
"1115","ABCD_1714","a",62,16,0,1000,992.530879974,7.46912002563,1,2.29303788567,309.962316169
"1116","ABCD_1714","a",63,16,1,1000,992.530879974,7.46912002563,1,2.32747366781,312.289878022
"1117","ABCD_1714","a",64,16,0,1000,1003.73456001,3.73456001282,0,2.48264983028,314.772704604
"1118","ABCD_1715","a",1,0,0,1000,1500,500,0,3.79374909401,84.5635550022
"1119","ABCD_1715","a",2,1,0,1000,1540,540,1,3.60717010498,88.1709361076
"1120","ABCD_1715","a",3,1,1,1000,1540,540,1,2.60539698601,90.7766661644
"1121","ABCD_1715","a",4,1,0,1000,730,270,1,2.48823308945,93.2651062012
"1122","ABCD_1715","a",5,1,1,1000,730,270,1,2.33818006516,95.6034550667
"1123","ABCD_1715","a",6,1,0,1000,865,135,0,3.00615787506,98.6097810268
"1124","ABCD_1715","a",7,2,0,1000,825,175,1,3.19004893303,101.800004005
"1125","ABCD_1715","a",8,2,1,1000,1175,175,1,2.90601491928,104.706188202
"1126","ABCD_1715","a",9,2,0,1000,1087.5,87.5,1,3.39043593407,108.096792221
"1127","ABCD_1715","a",10,2,1,1000,912.5,87.5,1,3.34074497223,111.437751055
"1128","ABCD_1715","a",11,2,0,1000,1043.75,43.75,1,2.4713139534,113.909442186
"1129","ABCD_1715","a",12,2,1,1000,1043.75,43.75,0,3.28985595703,117.199509144
"1130","ABCD_1715","a",13,3,0,1000,916.25,83.75,1,2.63885903358,119.838699102
"1131","ABCD_1715","a",14,3,1,1000,916.25,83.75,1,2.1876540184,122.0267241
"1132","ABCD_1715","a",15,3,0,1000,1041.875,41.875,1,2.2210149765,124.248136044
"1133","ABCD_1715","a",16,3,1,1000,958.125,41.875,1,2.50495791435,126.753445148
"1134","ABCD_1715","a",17,3,0,1000,1020.9375,20.9375,1,3.25657701492,130.01042223
"1135","ABCD_1715","a",18,3,1,1000,979.0625,20.9375,0,2.98927211761,133.000045061
"1136","ABCD_1715","a",19,4,0,1000,939.0625,60.9375,1,2.12084889412,135.121340036
"1137","ABCD_1715","a",20,4,1,1000,939.0625,60.9375,1,2.23763108253,137.359175205
"1138","ABCD_1715","a",21,4,0,1000,969.53125,30.46875,1,2.1377799511,139.497314215
"1139","ABCD_1715","a",22,4,1,1000,1030.46875,30.46875,1,2.0038690567,141.501579046
"1140","ABCD_1715","a",23,4,0,1000,984.765625,15.234375,1,3.55725288391,145.059184074
"1141","ABCD_1715","a",24,4,1,1000,1015.234375,15.234375,1,2.53828787804,147.597818136
"1142","ABCD_1715","a",25,4,0,1000,1007.6171875,7.6171875,1,3.49053788185,151.08855319
"1143","ABCD_1715","a",26,4,1,1000,1007.6171875,7.6171875,1,2.63872599602,153.727594137
"1144","ABCD_1715","a",27,4,0,1000,996.19140625,3.80859375,0,2.32128405571,156.049193144
"1145","ABCD_1715","a",28,5,0,1000,1028.80859375,28.80859375,1,2.47154092789,158.520932198
"1146","ABCD_1715","a",29,5,1,1000,971.19140625,28.80859375,1,2.371530056,160.892645121
"1147","ABCD_1715","a",30,5,0,1000,985.595703125,14.404296875,0,2.57204985619,163.465012074
"1148","ABCD_1715","a",31,6,0,1000,960.595703125,39.404296875,1,2.22100710869,165.68622303
"1149","ABCD_1715","a",32,6,1,1000,1039.40429688,39.404296875,1,2.77250504494,168.45907712
"1150","ABCD_1715","a",33,6,0,1000,980.297851562,19.7021484375,0,3.12291693687,171.58220005
"1151","ABCD_1715","a",34,7,0,1000,1044.70214844,44.7021484375,1,2.28806185722,173.870640039
"1152","ABCD_1715","a",35,7,1,1000,1044.70214844,44.7021484375,1,2.55494499207,176.425785065
"1153","ABCD_1715","a",36,7,0,1000,1022.35107422,22.3510742188,1,2.27127885818,178.697427034
"1154","ABCD_1715","a",37,7,1,1000,1022.35107422,22.3510742188,1,2.53857111931,181.23638916
"1155","ABCD_1715","a",38,7,0,1000,1011.17553711,11.1755371094,1,2.42128705978,183.657883167
"1156","ABCD_1715","a",39,7,1,1000,988.824462891,11.1755371094,1,2.38828802109,186.04632616
"1157","ABCD_1715","a",40,7,0,1000,1005.58776855,5.58776855469,0,2.60542106628,188.652121067
"1158","ABCD_1715","a",41,8,0,1000,1030.58776855,30.5877685547,1,2.20424699783,190.856578112
"1159","ABCD_1715","a",42,8,1,1000,1030.58776855,30.5877685547,1,2.30475711823,193.161511183
"1160","ABCD_1715","a",43,8,0,1000,1015.29388428,15.2938842773,1,2.12146782875,195.283412218
